time,seconds_elapsed,z,y,x
1790333689674720300,0.13472021484375,-0.040871620178222656,-0.07071495056152344,0.025465011596679688
1790333689691170800,0.1511708984375,0.008250236511230469,-0.15578603744506836,-0.06649351119995117
1790333689707646500,0.167646484375,0.35369253158569336,-0.2628903388977051,-0.11696839332580566
1790333689724111000,0.184111083984375,0.621800422668457,-0.10618829727172852,-0.2546563148498535
1790333689740659200,0.2006591796875,0.3783130645751953,0.04990053176879883,-0.10061478614807129
1790333689757132000,0.217132080078125,0.356595516204834,0.0012831687927246094,0.019308090209960938
1790333689773603600,0.233603515625,0.4124441146850586,-0.08707571029663086,0.015650272369384766
1790333689790082300,0.250082275390625,0.20523548126220703,-0.025348663330078125,0.015240192413330078
1790333689806403000,0.266403076171875,-0.02282428741455078,0.2547898292541504,-0.2575643062591553
1790333689822823700,0.28282373046875,-0.5893449783325195,0.34662818908691406,0.19104981422424316
1790333689839232800,0.299232666015625,-0.5363407135009766,0.2453017234802246,0.19987154006958008
1790333689855697000,0.31569677734375,-0.21179485321044922,-0.0034427642822265625,0.21691250801086426
1790333689872174300,0.33217431640625,0.0980072021484375,-0.0018911361694335938,0.05124211311340332
1790333689888640000,0.348639892578125,0.0005402565002441406,0.1809682846069336,0.07571172714233398
1790333689905111000,0.365111083984375,-0.06620216369628906,0.12296772003173828,0.3797743320465088
1790333689921558500,0.38155859375,-0.021903514862060547,0.24358558654785156,0.36273694038391113
1790333689937962200,0.397962158203125,0.10055780410766602,0.2230377197265625,0.37777233123779297
1790333689954475300,0.414475341796875,0.09663105010986328,0.3983907699584961,0.013529539108276367
1790333689970917600,0.430917724609375,-0.2723231315612793,0.37279415130615234,0.21977567672729492
1790333689987359700,0.44735986328125,-0.3188052177429199,0.2791023254394531,0.28566932678222656
1790333690003820000,0.463820068359375,-0.33363819122314453,0.10015392303466797,0.22922039031982422
1790333690020267000,0.48026708984375,-0.14346599578857422,0.08144283294677734,-0.11277031898498535
1790333690036780300,0.4967802734375,-0.15316343307495117,0.21121597290039062,-0.08036398887634277
1790333690053233200,0.513233154296875,-0.2778449058532715,0.1093606948852539,0.12224245071411133
1790333690069673700,0.529673828125,-0.27445030212402344,0.07906055450439453,0.16542768478393555
1790333690086132200,0.54613232421875,-0.25962305068969727,0.008665084838867188,0.07032895088195801
1790333690102598000,0.562597900390625,-0.16466093063354492,0.144012451171875,-0.27598094940185547
1790333690119076900,0.579076904296875,-0.5272359848022461,0.13189125061035156,0.07031035423278809
1790333690135513900,0.595513916015625,-0.4724435806274414,0.11269760131835938,0.006407976150512695
1790333690151982000,0.611982177734375,-0.38535451889038086,0.0081939697265625,0.06531023979187012
1790333690168423400,0.62842333984375,-0.08348608016967773,0.08306598663330078,-0.08920884132385254
1790333690184873000,0.644873046875,-0.1655278205871582,0.20580482482910156,0.019751548767089844
1790333690201346300,0.66134619140625,-0.40985870361328125,0.1429882049560547,0.24194598197937012
1790333690217817900,0.67781787109375,-0.30638694763183594,0.10378074645996094,0.1810595989227295
1790333690234312200,0.694312255859375,-0.20009326934814453,0.019048690795898438,0.13960576057434082
1790333690250776300,0.7107763671875,-0.04884767532348633,0.1857166290283203,-0.18358922004699707
1790333690267252500,0.72725244140625,-0.39630794525146484,0.14006710052490234,0.14583301544189453
1790333690283761400,0.743761474609375,-0.30882787704467773,0.11332511901855469,0.1690692901611328
1790333690300235300,0.7602353515625,-0.21068477630615234,-0.0283355712890625,0.22575092315673828
1790333690316734700,0.776734619140625,0.0818939208984375,0.032828330993652344,-0.059511661529541016
1790333690333204700,0.793204833984375,-0.048336029052734375,0.21267127990722656,0.013933420181274414
1790333690349681400,0.809681396484375,-0.1769242286682129,0.12563323974609375,0.19396448135375977
1790333690366151400,0.8261513671875,-0.08069229125976562,0.03692340850830078,0.10368824005126953
1790333690382622700,0.842622802734375,0.039801597595214844,-0.08960628509521484,0.07126283645629883
1790333690399122700,0.859122802734375,0.17805147171020508,0.1215066909790039,-0.22248291969299316
1790333690415589600,0.875589599609375,-0.3033127784729004,0.0994253158569336,0.1389608383178711
1790333690432066600,0.892066650390625,-0.1819295883178711,0.14677143096923828,0.05912613868713379
1790333690448458500,0.90845849609375,-0.09230422973632812,-0.030023574829101562,0.12312984466552734
1790333690464953000,0.924953125,0.05081462860107422,-0.040119171142578125,-0.04480719566345215
1790333690481452300,0.941452392578125,-0.03842449188232422,0.1679534912109375,-0.11167788505554199
1790333690497913900,0.957913818359375,-0.28020381927490234,0.1284637451171875,0.19939017295837402
1790333690514394400,0.974394287109375,-0.12932538986206055,0.030953407287597656,0.07280611991882324
1790333690530897700,0.990897705078125,-0.07847452163696289,-0.12556743621826172,0.015406608581542969
1790333690547378400,1.00737841796875,0.10243892669677734,0.008359909057617188,-0.23848199844360352
1790333690563881000,1.023880859375,-0.1837153434753418,0.13800716400146484,0.002172708511352539
1790333690580354000,1.04035400390625,-0.1788015365600586,0.09242725372314453,0.17218255996704102
1790333690596855600,1.05685546875,0.03984832763671875,-0.07647418975830078,0.17856884002685547
1790333690613331200,1.073331298828125,0.18607139587402344,-0.08888721466064453,0.012346506118774414
1790333690629814000,1.08981396484375,0.1982860565185547,0.1444225311279297,-0.239180326461792
1790333690646288100,1.1062880859375,-0.25872278213500977,0.13660526275634766,0.17253494262695312
1790333690662757000,1.122757080078125,-0.13206720352172852,0.09695148468017578,0.09478020668029785
1790333690679231500,1.1392314453125,0.0077838897705078125,-0.10441970825195312,0.15102934837341309
1790333690695734300,1.155734375,0.24335050582885742,0.0012807846069335938,-0.1352379322052002
1790333690712216300,1.17221630859375,-0.015933990478515625,0.22518157958984375,-0.01475214958190918
1790333690728720100,1.18872021484375,-0.21383285522460938,0.13733196258544922,0.1856367588043213
1790333690745187600,1.2051875,-0.03852272033691406,-0.03496551513671875,0.12709736824035645
1790333690761678800,1.221678955078125,0.10888242721557617,-0.10858440399169922,0.07719540596008301
1790333690778180900,1.238180908203125,0.17864418029785156,0.16202068328857422,-0.2623007297515869
1790333690794653000,1.25465283203125,-0.25565433502197266,0.09018230438232422,0.16341567039489746
1790333690811153200,1.271153076171875,-0.10272741317749023,0.06487274169921875,0.09462738037109375
1790333690827622700,1.28762255859375,-0.05640840530395508,-0.12287235260009766,0.17576169967651367
1790333690844120800,1.304120849609375,0.1926112174987793,-0.013141632080078125,-0.11823344230651855
1790333690860622000,1.3206220703125,-0.08137798309326172,0.1425027847290039,-0.020694255828857422
1790333690877079300,1.337079345703125,-0.2816939353942871,0.09094810485839844,0.15663647651672363
1790333690893554700,1.3535546875,-0.14841651916503906,-0.04092216491699219,0.11773037910461426
1790333690910027000,1.370027099609375,0.009150028228759766,-0.17635536193847656,0.0821232795715332
1790333690926500900,1.3865009765625,0.22588872909545898,0.04507732391357422,-0.16540980339050293
1790333690942977500,1.4029775390625,-0.17481279373168945,0.08909130096435547,0.11952400207519531
1790333690959451100,1.419451171875,-0.19603395462036133,0.039562225341796875,0.13342905044555664
1790333690975982600,1.435982666015625,-0.11929702758789062,-0.0763864517211914,0.0659646987915039
1790333690992450300,1.4524501953125,0.07825469970703125,-0.05264091491699219,-0.12043976783752441
1790333691008931800,1.468931884765625,0.08009719848632812,0.1404104232788086,-0.13178157806396484
1790333691025421000,1.485421142578125,-0.17568540573120117,0.08327198028564453,0.05687999725341797
1790333691041892600,1.501892578125,-0.14567089080810547,-0.010510444641113281,0.0987863540649414
1790333691058395000,1.518394775390625,0.04703378677368164,-0.15309906005859375,-0.03305363655090332
1790333691074848000,1.534847900390625,0.3312211036682129,-0.013559341430664062,-0.30510687828063965
1790333691091313400,1.5513134765625,0.09413385391235352,-0.03097248077392578,-0.08282279968261719
1790333691107837400,1.56783740234375,-0.11451244354248047,0.054050445556640625,-0.14164066314697266
1790333691124303400,1.584303466796875,-0.18042397499084473,-0.040943145751953125,-0.06902217864990234
1790333691140795600,1.600795654296875,0.12337636947631836,0.014185905456542969,-0.24009227752685547
1790333691157253000,1.617253173828125,0.03404641151428223,0.18456554412841797,-0.16758108139038086
1790333691173714400,1.63371435546875,-0.250870943069458,0.10996055603027344,-0.016384601593017578
1790333691190185500,1.650185546875,-0.23371362686157227,-0.049373626708984375,-0.034761905670166016
1790333691206682600,1.6666826171875,-0.1326911449432373,-0.21244430541992188,-0.07617354393005371
1790333691223196700,1.68319677734375,0.03889322280883789,0.012804985046386719,-0.3837699890136719
1790333691239666200,1.699666259765625,-0.1650528907775879,0.07904720306396484,-0.12560057640075684
1790333691256142300,1.716142333984375,0.038121938705444336,0.04280662536621094,-0.019257307052612305
1790333691272599800,1.732599853515625,0.17862319946289062,-0.14360713958740234,0.025116920471191406
1790333691289070000,1.749070068359375,0.2960960865020752,-0.15463924407958984,-0.09451961517333984
1790333691305570600,1.765570556640625,0.1394491195678711,0.0356903076171875,-0.18127012252807617
1790333691322038800,1.782038818359375,-0.1601853370666504,0.012411117553710938,-0.0006103515625
1790333691338497800,1.798497802734375,-0.20761609077453613,0.014163970947265625,0.014717340469360352
1790333691354968800,1.81496875,-0.013041496276855469,-0.05043506622314453,0.04680681228637695
1790333691371432400,1.831432373046875,0.10807085037231445,0.07652473449707031,-0.08754873275756836
1790333691387897000,1.84789697265625,-0.23036623001098633,0.16194725036621094,0.069854736328125
1790333691404355300,1.864355224609375,-0.4232335090637207,0.10277080535888672,0.17049479484558105
1790333691420823300,1.8808232421875,-0.24934887886047363,-0.0018548965454101562,0.16901278495788574
1790333691437329000,1.897328857421875,0.010055303573608398,-0.05379009246826172,0.029050350189208984
1790333691452831700,1.912831787109375,0.12503600120544434,0.17442035675048828,-0.23763108253479004
1790333691469337300,1.92933740234375,-0.1943681240081787,0.2539405822753906,-0.016158580780029297
1790333691485815000,1.94581494140625,-0.1792912483215332,0.13411235809326172,0.15160417556762695
1790333691502292000,1.9622919921875,0.043715476989746094,-0.14453125,0.22633814811706543
1790333691518792700,1.978792724609375,0.18319129943847656,-0.1204385757446289,-0.0034999847412109375
1790333691535265500,1.995265625,-0.03266787528991699,0.18026065826416016,-0.1610422134399414
1790333691551730400,2.01173046875,-0.303851842880249,0.17081832885742188,0.10123467445373535
1790333691568197600,2.02819775390625,-0.18953967094421387,0.006083488464355469,0.2401888370513916
1790333691584692000,2.04469189453125,-0.06835412979125977,-0.1580371856689453,0.18096208572387695
1790333691601164800,2.061164794921875,0.21761322021484375,-0.0022687911987304688,-0.21115565299987793
1790333691617639700,2.0776396484375,-0.5711531639099121,0.14430522918701172,-0.1087944507598877
1790333691634143700,2.094143798828125,-0.6795511245727539,0.13216400146484375,-0.02883124351501465
1790333691650610400,2.1106103515625,-0.2974998950958252,0.0812540054321289,0.1349635124206543
1790333691667075800,2.127075927734375,0.011096954345703125,0.06637954711914062,0.12173724174499512
1790333691683575300,2.1435751953125,-0.0002665519714355469,0.2721118927001953,-0.051868438720703125
1790333691700085500,2.16008544921875,-0.25015926361083984,0.14702796936035156,0.14055800437927246
1790333691716584700,2.176584716796875,-0.06978440284729004,-0.11502933502197266,-0.049115896224975586
1790333691733040400,2.193040283203125,-0.2496640682220459,-0.40955448150634766,-0.28496241569519043
1790333691749484300,2.209484375,-0.05634498596191406,-0.22217273712158203,-0.66459059715271
1790333691765960000,2.2259599609375,0.14545536041259766,-0.1714029312133789,-0.15928053855895996
1790333691782427600,2.242427734375,0.4087185859680176,-0.12080764770507812,0.16662359237670898
1790333691798921000,2.2589208984375,0.35523366928100586,-0.1230630874633789,0.2223045825958252
1790333691815443000,2.27544287109375,0.3156321048736572,-0.02464580535888672,-0.05765676498413086
1790333691831938800,2.291938720703125,0.1491529941558838,0.27814197540283203,-0.27591943740844727
1790333691848441000,2.308441162109375,-0.25720906257629395,0.1382617950439453,0.07938385009765625
1790333691864917200,2.324917236328125,0.05337071418762207,0.02234172821044922,0.047057151794433594
1790333691881387500,2.341387451171875,0.3197031021118164,-0.21190834045410156,0.04760098457336426
1790333691897853000,2.35785302734375,0.5365467071533203,0.03387928009033203,-0.31743884086608887
1790333691914302000,2.374302001953125,0.09271454811096191,0.045456886291503906,0.03052544593811035
1790333691930805500,2.390805419921875,0.06200265884399414,0.06785011291503906,0.007627010345458984
1790333691947287600,2.40728759765625,0.21378135681152344,-0.09932136535644531,0.03524923324584961
1790333691963792400,2.42379248046875,0.4419286251068115,-0.044089317321777344,-0.18989348411560059
1790333691980264700,2.4402646484375,0.12258219718933105,0.10439300537109375,-0.17206335067749023
1790333691996733200,2.456733154296875,-0.1560835838317871,0.02665996551513672,0.0022704601287841797
1790333692013214500,2.47321435546875,-0.031305551528930664,-0.06252479553222656,0.01951885223388672
1790333692029688800,2.489688720703125,0.03922867774963379,-0.1605520248413086,0.012968778610229492
1790333692046144300,2.506144287109375,0.22250723838806152,0.13224506378173828,-0.20183134078979492
1790333692062535200,2.52253515625,-0.1335597038269043,0.0994424819946289,0.1429445743560791
1790333692078995200,2.5389951171875,-0.007166624069213867,0.11183547973632812,0.21895241737365723
1790333692095471600,2.5554716796875,-0.0793907642364502,-0.06982803344726562,0.263491153717041
1790333692111989200,2.5719892578125,-0.09159016609191895,0.010074615478515625,0.004033327102661133
1790333692127503000,2.587503173828125,-0.1953415870666504,0.22008419036865234,-0.09768819808959961
1790333692143954400,2.603954345703125,-0.32299041748046875,0.09209442138671875,0.2683389186859131
1790333692160440000,2.620440185546875,-0.1058201789855957,-0.02729511260986328,0.265702486038208
1790333692176893700,2.636893798828125,-0.03128767013549805,-0.16234588623046875,0.07579755783081055
1790333692193226500,2.6532265625,-0.003595113754272461,0.009639739990234375,-0.31375646591186523
1790333692209739300,2.6697392578125,-0.3928253650665283,0.1197652816772461,-0.08113741874694824
1790333692226246100,2.68624609375,-0.286240816116333,0.09029674530029297,0.20265507698059082
1790333692242735600,2.702735595703125,0.11058330535888672,-0.06663799285888672,0.20479846000671387
1790333692259266600,2.7192666015625,0.21334481239318848,-0.1151590347290039,0.07367658615112305
1790333692275778000,2.735778076171875,0.1479790210723877,0.19162559509277344,-0.14780497550964355
1790333692292273700,2.752273681640625,-0.40413594245910645,0.1516408920288086,0.2369375228881836
1790333692308766700,2.7687666015625,-0.42000317573547363,0.047679901123046875,0.2906968593597412
1790333692325220600,2.785220703125,-0.10172128677368164,-0.12769126892089844,0.140639066696167
1790333692341747500,2.80174755859375,0.15892767906188965,-0.03422355651855469,-0.17336249351501465
1790333692358223000,2.81822314453125,-0.0656745433807373,0.17855358123779297,-0.10306024551391602
1790333692374715000,2.83471484375,-0.16030240058898926,0.06215190887451172,0.3230102062225342
1790333692391221000,2.851220947265625,0.09048938751220703,-0.12473297119140625,0.2685673236846924
1790333692407705900,2.867705810546875,0.26241421699523926,-0.21302318572998047,0.0603485107421875
1790333692424201200,2.884201171875,0.2465512752532959,0.1185140609741211,-0.27295899391174316
1790333692440668200,2.900668212890625,-0.3343493938446045,0.11664676666259766,0.22247529029846191
1790333692457117200,2.9171171875,-0.2510247230529785,0.13288593292236328,0.18857979774475098
1790333692473622000,2.9336220703125,-0.06247663497924805,-0.0647573471069336,0.13831233978271484
1790333692490074400,2.950074462890625,0.29764246940612793,0.012149810791015625,-0.11222124099731445
1790333692506570000,2.966570068359375,-0.06272006034851074,0.0899190902709961,0.01944756507873535
1790333692523051000,2.983051025390625,-0.4147801399230957,-0.031624794006347656,0.1570589542388916
1790333692539503400,2.99950341796875,-0.37911105155944824,-0.07468795776367188,0.030283212661743164
1790333692556011800,3.01601171875,-0.12279391288757324,-0.07783985137939453,-0.01785421371459961
1790333692572499700,3.032499755859375,-0.040235042572021484,0.25858211517333984,-0.2015392780303955
1790333692589032400,3.049032470703125,-0.33112120628356934,0.1598682403564453,0.2532339096069336
1790333692605475300,3.065475341796875,-0.018882274627685547,0.019873619079589844,0.09303760528564453
1790333692621970700,3.081970703125,0.037815093994140625,-0.21921539306640625,-0.045604705810546875
1790333692638440700,3.098440673828125,0.35416316986083984,-0.10128307342529297,-0.3409109115600586
1790333692654929700,3.1149296875,0.48882198333740234,-0.059103965759277344,0.0448606014251709
1790333692671426300,3.13142626953125,0.6705482006072998,-0.0010499954223632812,0.2758638858795166
1790333692687874000,3.1478740234375,0.552570104598999,-0.020059585571289062,0.31061291694641113
1790333692704351500,3.1643515625,0.44917941093444824,0.03605842590332031,0.1128239631652832
1790333692720857300,3.180857421875,0.18469548225402832,0.26348114013671875,-0.2791726589202881
1790333692737345500,3.197345458984375,-0.3751523494720459,0.08479022979736328,0.07501578330993652
1790333692753865700,3.21386572265625,-0.06047391891479492,-0.047081947326660156,0.08051848411560059
1790333692770371600,3.23037158203125,0.14689326286315918,-0.2247467041015625,0.06259894371032715
1790333692786859000,3.24685888671875,0.2138810157775879,-0.06865787506103516,-0.23494267463684082
1790333692803336700,3.263336669921875,-0.2107832431793213,0.09024620056152344,-0.13643670082092285
1790333692819770600,3.2797705078125,-0.3904557228088379,0.008675575256347656,0.12031722068786621
1790333692836240600,3.29624072265625,-0.22401928901672363,-0.08360767364501953,0.14671850204467773
1790333692852716500,3.312716552734375,0.037077903747558594,-0.09314727783203125,0.026157379150390625
1790333692869198600,3.329198486328125,0.1822338104248047,0.1323986053466797,-0.24585390090942383
1790333692885663700,3.345663818359375,-0.2827174663543701,0.05047798156738281,0.13377690315246582
1790333692902135300,3.36213525390625,-0.18346548080444336,-0.02687358856201172,0.18404912948608398
1790333692918631200,3.378631103515625,0.22374606132507324,-0.18103790283203125,0.13234472274780273
1790333692935104800,3.395104736328125,0.4424886703491211,-0.15657424926757812,0.0057353973388671875
1790333692951584300,3.411584228515625,0.1676492691040039,0.11258506774902344,-0.20490503311157227
1790333692968100600,3.4281005859375,-0.2540740966796875,0.02193737030029297,0.0792076587677002
1790333692984550400,3.44455029296875,-0.1022195816040039,-0.04595756530761719,0.06088447570800781
1790333693001073700,3.46107373046875,0.12236261367797852,-0.12261104583740234,0.050884246826171875
1790333693017576700,3.47757666015625,0.2338559627532959,0.09219074249267578,-0.202606201171875
1790333693034057200,3.49405712890625,-0.1336963176727295,0.19530582427978516,0.02713751792907715
1790333693050466600,3.510466552734375,-0.2047863006591797,0.100433349609375,0.23561310768127441
1790333693066915000,3.5269150390625,0.03800797462463379,-0.05045890808105469,0.22861337661743164
1790333693083310000,3.54331005859375,0.23037099838256836,-0.09789848327636719,-0.004153013229370117
1790333693099784700,3.55978466796875,0.15982270240783691,0.15774250030517578,-0.3032798767089844
1790333693115230200,3.575230224609375,-0.31809210777282715,0.08866310119628906,0.1800549030303955
1790333693131680000,3.591679931640625,-0.4712669849395752,-0.08619403839111328,0.19607162475585938
1790333693148126500,3.60812646484375,-0.7336311340332031,-0.09941959381103516,0.03955388069152832
1790333693164628500,3.62462841796875,-0.1783449649810791,0.20844078063964844,-0.1279764175415039
1790333693181104400,3.6411044921875,0.11941838264465332,0.6090965270996094,0.047821760177612305
1790333693197596700,3.6575966796875,0.5214176177978516,0.13516712188720703,0.40867626667022705
1790333693214117600,3.67411767578125,0.9524190425872803,-0.5051069259643555,-0.11912417411804199
1790333693230584600,3.69058447265625,0.8722257614135742,-0.6510419845581055,-0.5513899326324463
1790333693247051300,3.70705126953125,0.7750201225280762,-0.1903676986694336,-0.7974889278411865
1790333693263572700,3.72357275390625,0.23088550567626953,0.11903858184814453,0.19781064987182617
1790333693280066300,3.74006640625,0.002443075180053711,0.2730693817138672,0.5833529233932495
1790333693296562200,3.756562255859375,-0.0516972541809082,0.20104026794433594,0.4952678680419922
1790333693313054000,3.773053955078125,-0.04256248474121094,0.17475605010986328,0.09209108352661133
1790333693329567500,3.7895673828125,-0.23255038261413574,0.2826805114746094,-0.12985706329345703
1790333693346058500,3.80605859375,-0.2811264991760254,0.006745338439941406,0.06946587562561035
1790333693362515500,3.822515380859375,0.1659712791442871,-0.3114938735961914,-0.057416677474975586
1790333693378995500,3.838995361328125,0.38494253158569336,-0.504185676574707,-0.12189435958862305
1790333693395476200,3.855476318359375,0.3198552131652832,-0.1824483871459961,-0.45238304138183594
1790333693412001000,3.8720009765625,-0.24165010452270508,-0.06920814514160156,-0.10505127906799316
1790333693428476000,3.888475830078125,-0.21314263343811035,-0.03394126892089844,-0.02172088623046875
1790333693444962000,3.904962158203125,-0.16543960571289062,-0.1287059783935547,-0.009816408157348633
1790333693461460500,3.92146044921875,0.1587047576904297,-0.11170578002929688,-0.12014484405517578
1790333693477958100,3.937958251953125,0.3139519691467285,0.12105464935302734,-0.16518759727478027
1790333693494450200,3.9544501953125,-0.09579992294311523,0.03537750244140625,0.2096259593963623
1790333693510911500,3.970911376953125,-0.09303736686706543,-0.0398101806640625,0.20670676231384277
1790333693527403000,3.987403076171875,-0.05629110336303711,-0.12302684783935547,-0.03059697151184082
1790333693543879200,4.003879150390625,-0.030007600784301758,0.048976898193359375,-0.3528721332550049
1790333693560362800,4.02036279296875,-0.3457174301147461,0.23063945770263672,-0.15511846542358398
1790333693576854500,4.0368544921875,-0.39609670639038086,0.11993980407714844,0.12284278869628906
1790333693593327600,4.05332763671875,-0.15874242782592773,-0.09184932708740234,0.14018630981445312
1790333693609790500,4.06979052734375,0.12278962135314941,-0.19505977630615234,-0.01691579818725586
1790333693626270200,4.086270263671875,0.20546436309814453,0.16077613830566406,-0.2732374668121338
1790333693642754600,4.102754638671875,-0.22395920753479004,0.15540790557861328,0.22040748596191406
1790333693659259600,4.119259765625,-0.09242868423461914,0.014497756958007812,0.21970272064208984
1790333693675710700,4.135710693359375,0.1797490119934082,-0.16634464263916016,0.17595791816711426
1790333693692173800,4.152173828125,0.4345569610595703,-0.007481575012207031,-0.10282588005065918
1790333693708620000,4.1686201171875,-0.008460283279418945,0.32137584686279297,-0.021809101104736328
1790333693725073000,4.185072998046875,-0.14778685569763184,0.18579578399658203,0.305240273475647
1790333693741548000,4.201548095703125,0.061858415603637695,-0.08884620666503906,0.2915750741958618
1790333693758070500,4.218070556640625,0.07758498191833496,-0.23601055145263672,0.12945222854614258
1790333693774552000,4.234552001953125,0.11910057067871094,0.16762351989746094,-0.26099348068237305
1790333693791033000,4.251033203125,-0.31623339653015137,0.1577463150024414,0.13238310813903809
1790333693807474400,4.267474365234375,-0.04177284240722656,0.08708572387695312,0.11133217811584473
1790333693823988000,4.283988037109375,0.1425178050994873,-0.20114517211914062,0.1364884376525879
1790333693840449500,4.300449462890625,0.36198997497558594,-0.0827188491821289,-0.16003131866455078
1790333693856928300,4.31692822265625,-0.0043332576751708984,0.0883646011352539,-0.11199522018432617
1790333693873434000,4.33343408203125,-0.22775888442993164,-0.058945655822753906,0.1059107780456543
1790333693889945000,4.349945068359375,-0.08109807968139648,-0.20363330841064453,-0.014390230178833008
1790333693906441000,4.36644091796875,-0.008534431457519531,-0.3178091049194336,-0.21378183364868164
1790333693922905000,4.382905029296875,-0.06563282012939453,-0.004618644714355469,-0.5678894519805908
1790333693939429000,4.39942919921875,-0.4665200710296631,0.009898185729980469,-0.07478022575378418
1790333693955896000,4.41589599609375,-0.27452659606933594,-0.07416915893554688,0.08561646938323975
1790333693972328000,4.432327880859375,-0.09006905555725098,-0.27689647674560547,0.03478562831878662
1790333693988819700,4.44881982421875,-0.08537888526916504,-0.24236106872558594,-0.19348442554473877
1790333694005303300,4.46530322265625,-0.32430267333984375,0.05165576934814453,-0.2666882276535034
1790333694021741600,4.481741455078125,-0.6599459648132324,0.036830902099609375,0.3046947717666626
1790333694038211600,4.498211669921875,-0.5534071922302246,0.1730480194091797,0.473490834236145
1790333694054727700,4.514727783203125,-0.3394503593444824,0.20923709869384766,0.4916422367095947
1790333694071193900,4.53119384765625,0.004236698150634766,0.4081554412841797,0.25427281856536865
1790333694087658200,4.547658203125,0.03849148750305176,0.4936189651489258,0.39913368225097656
1790333694104098800,4.564098876953125,0.2636113166809082,0.36691856384277344,0.5483546257019043
1790333694120565500,4.5805654296875,0.8082454204559326,0.15250205993652344,0.3743469715118408
1790333694137028000,4.597028076171875,1.0651068687438965,-0.04384613037109375,0.1391286849975586
1790333694153489000,4.613489013671875,0.9573917388916016,0.07908248901367188,-0.22009313106536865
1790333694170003000,4.6300029296875,0.36385536193847656,-0.1187124252319336,0.0739290714263916
1790333694186468900,4.64646875,0.2788071632385254,-0.22019100189208984,0.0007638931274414062
1790333694202936600,4.6629365234375,0.3984107971191406,-0.36702537536621094,-0.16501593589782715
1790333694219418000,4.679418212890625,0.32525062561035156,-0.3681926727294922,-0.464738130569458
1790333694235904800,4.69590478515625,-0.4861767292022705,-0.13899517059326172,-0.28981947898864746
1790333694252361000,4.71236083984375,-0.8998129367828369,-0.053717613220214844,0.1639004945755005
1790333694268841000,4.728841064453125,-0.6545248031616211,-0.025859832763671875,0.18081414699554443
1790333694285319000,4.74531884765625,-0.2993130683898926,-0.11548995971679688,-0.08172667026519775
1790333694301778700,4.76177880859375,0.09961891174316406,0.17379188537597656,-0.5528627634048462
1790333694318272000,4.77827197265625,-0.21738481521606445,0.1308879852294922,-0.063956618309021
1790333694334706000,4.794705810546875,-0.12633991241455078,0.0891275405883789,0.03096902370452881
1790333694351169500,4.81116943359375,0.12009620666503906,-0.15224742889404297,0.018128156661987305
1790333694367633400,4.82763330078125,0.3484654426574707,-0.10606956481933594,-0.3303612470626831
1790333694384092400,4.844092529296875,0.23525619506835938,0.08349990844726562,-0.36237668991088867
1790333694400614000,4.86061376953125,0.19916725158691406,-0.045433998107910156,-0.005357146263122559
1790333694417086200,4.877086181640625,0.5003795623779297,-0.07855796813964844,-0.10212957859039307
1790333694433605400,4.89360546875,0.7376680374145508,-0.1233530044555664,-0.1407257318496704
1790333694450094800,4.9100947265625,0.7372684478759766,0.2203655242919922,-0.2754945755004883
1790333694466573600,4.926573486328125,0.09534406661987305,0.19616222381591797,0.2736244201660156
1790333694483046100,4.943046142578125,-0.01806163787841797,0.20114707946777344,0.3516995906829834
1790333694499567000,4.959567138671875,-0.0787806510925293,0.08231639862060547,0.31064462661743164
1790333694516082200,4.976082275390625,-0.0852665901184082,0.12122058868408203,0.13082897663116455
1790333694532555300,4.99255517578125,-0.23465967178344727,0.36379241943359375,-0.048062682151794434
1790333694549055500,5.009055419921875,-0.5562098026275635,0.16906261444091797,0.24686479568481445
1790333694565556700,5.025556640625,-0.3308107852935791,-0.051476478576660156,0.16354119777679443
1790333694582013000,5.042012939453125,-0.08926200866699219,-0.23415470123291016,0.07400858402252197
1790333694598490400,5.058490478515625,0.15939712524414062,-0.008724212646484375,-0.33987295627593994
1790333694614996000,5.074995849609375,-0.1262826919555664,0.12419605255126953,-0.22684752941131592
1790333694631449000,5.091448974609375,-0.1573805809020996,0.05712890625,-0.05129110813140869
1790333694647978500,5.107978515625,0.002987384796142578,-0.2754993438720703,0.11223411560058594
1790333694664442000,5.124442138671875,0.30254077911376953,-0.47124767303466797,-0.031129837036132812
1790333694680932400,5.140932373046875,0.3773632049560547,0.021368026733398438,-0.6200958490371704
1790333694697422800,5.1574228515625,-0.2864084243774414,0.1756601333618164,-0.18745851516723633
1790333694713864400,5.173864501953125,-0.23967695236206055,0.057308197021484375,0.2723759412765503
1790333694730388500,5.190388427734375,0.22290468215942383,-0.36799049377441406,0.4079091548919678
1790333694746867200,5.2068671875,0.49870872497558594,-0.2366628646850586,-0.17932701110839844
1790333694763364900,5.22336474609375,-0.16385316848754883,0.2618083953857422,-0.4083021879196167
1790333694779864600,5.239864501953125,-0.8874032497406006,0.2374124526977539,0.13421010971069336
1790333694796306200,5.25630615234375,-0.7075886726379395,-0.07945060729980469,0.32221710681915283
1790333694812793900,5.2727939453125,-0.11155509948730469,-0.6218748092651367,0.2824885845184326
1790333694829279200,5.289279296875,0.5345277786254883,-0.2747344970703125,-0.513564944267273
1790333694845725400,5.305725341796875,-0.13466835021972656,0.03979778289794922,-0.19919121265411377
1790333694862219800,5.3222197265625,-0.3320958614349365,0.2566957473754883,-0.007336258888244629
1790333694878720300,5.33872021484375,-0.06564855575561523,-0.07266807556152344,0.3004690408706665
1790333694895207000,5.35520703125,0.6647334098815918,-0.20566463470458984,0.1509305238723755
1790333694911705000,5.371705078125,0.7598223686218262,0.2908620834350586,-0.08568382263183594
1790333694928191500,5.38819140625,0.10208654403686523,0.4048490524291992,0.4431591033935547
1790333694944706800,5.404706787109375,-0.0965566635131836,0.32909679412841797,0.6307035684585571
1790333694961168600,5.421168701171875,-0.037244319915771484,-0.2245330810546875,0.7279627323150635
1790333694977663200,5.437663330078125,0.1785116195678711,0.06268978118896484,-0.03596341609954834
1790333694994153500,5.454153564453125,-0.6185884475708008,0.22501468658447266,0.17950797080993652
1790333695010640100,5.47064013671875,-0.7845163345336914,0.40020179748535156,0.2724395990371704
1790333695027144000,5.48714404296875,-0.4372599124908447,0.0398101806640625,0.38951754570007324
1790333695043623200,5.503623046875,0.4455680847167969,0.08657646179199219,-0.23532164096832275
1790333695060113200,5.520113037109375,0.4023451805114746,0.3550682067871094,-0.34663426876068115
1790333695076537300,5.536537353515625,0.01204061508178711,0.28768253326416016,0.10894060134887695
1790333695093020400,5.5530205078125,0.1733546257019043,-0.0020780563354492188,0.131322979927063
1790333695109489000,5.569489013671875,0.5763406753540039,-0.4383096694946289,-0.021410226821899414
1790333695126005500,5.586005615234375,0.7180018424987793,-0.07111644744873047,-0.6824936866760254
1790333695142507300,5.60250732421875,-0.3242011070251465,0.10025501251220703,-0.09962832927703857
1790333695158983000,5.61898291015625,-0.5753662586212158,0.194854736328125,0.22777009010314941
1790333695175459600,5.63545947265625,-0.3021206855773926,-0.3246116638183594,0.32344138622283936
1790333695191947800,5.65194775390625,0.2292652130126953,-0.10876178741455078,-0.700002908706665
1790333695208441000,5.668441162109375,-0.43688082695007324,0.11646270751953125,-0.4491250514984131
1790333695224918500,5.68491845703125,-0.7355732917785645,0.20410728454589844,0.5430716276168823
1790333695241385200,5.70138525390625,-0.2980341911315918,-0.004355430603027344,0.9501153230667114
1790333695257887000,5.717886962890625,0.5318560600280762,0.3564291000366211,0.04857158660888672
1790333695274337300,5.734337158203125,0.43122053146362305,0.5114421844482422,-0.295223593711853
1790333695290805500,5.750805419921875,-0.1873788833618164,0.19261741638183594,0.3935009241104126
1790333695307329300,5.767329345703125,-0.2197408676147461,-0.13043975830078125,0.08631587028503418
1790333695323828000,5.783827880859375,-0.17428112030029297,-0.11129570007324219,-0.6428018808364868
1790333695340328000,5.800327880859375,-0.38358449935913086,-0.24605655670166016,-0.4600343704223633
1790333695356827600,5.81682763671875,-0.23400354385375977,-0.5956888198852539,-0.1713653802871704
1790333695373292800,5.833292724609375,0.07863521575927734,-0.24956703186035156,-0.5450167655944824
1790333695389790500,5.84979052734375,-0.1786808967590332,0.06673145294189453,-0.2675274610519409
1790333695406264600,5.8662646484375,-0.08100461959838867,0.017592430114746094,0.06586229801177979
1790333695422755800,5.882755859375,0.1068716049194336,0.22348499298095703,-0.13333988189697266
1790333695439276800,5.89927685546875,-0.25710153579711914,0.08953571319580078,0.02056264877319336
1790333695455737000,5.915737060546875,0.051516056060791016,-0.19133567810058594,-0.10401880741119385
1790333695472230000,5.93222998046875,0.18077516555786133,-0.18409156799316406,-0.4400843381881714
1790333695488723700,5.9487236328125,-0.24748897552490234,-0.36358165740966797,-0.2359098196029663
1790333695505204500,5.96520458984375,-0.09260892868041992,-0.40670108795166016,-0.3575667142868042
1790333695521710000,5.9817099609375,-0.04714012145996094,-0.15897178649902344,-0.4957984685897827
1790333695538169300,5.99816943359375,-0.0549473762512207,-0.0794992446899414,-0.14614331722259521
1790333695554717200,6.01471728515625,0.19626522064208984,0.020017623901367188,0.05653071403503418
1790333695571183900,6.031183837890625,0.04220008850097656,0.2003774642944336,0.09142875671386719
1790333695587649800,6.04764990234375,-0.11632633209228516,0.19189167022705078,0.2886146306991577
1790333695604144000,6.06414404296875,0.05085325241088867,0.2345428466796875,0.13680553436279297
1790333695620641000,6.08064111328125,0.02903127670288086,0.18910694122314453,0.0831676721572876
1790333695637136600,6.09713671875,0.48474884033203125,0.23578262329101562,-0.048807382583618164
1790333695653641000,6.113640869140625,0.46261024475097656,0.22224903106689453,0.07457208633422852
1790333695670102300,6.130102294921875,0.3408184051513672,0.1529245376586914,0.20010113716125488
1790333695686600400,6.146600341796875,0.46418094635009766,0.3421773910522461,0.11453604698181152
1790333695703038500,6.16303857421875,0.3180713653564453,0.4385719299316406,0.283572793006897
1790333695719502000,6.179502197265625,0.38110923767089844,0.5366640090942383,0.27975893020629883
1790333695735963000,6.195962890625,-0.0028934478759765625,0.4847755432128906,0.35493671894073486
1790333695752454400,6.212454345703125,-0.19928932189941406,0.2246532440185547,0.2580113410949707
1790333695768930300,6.228930419921875,-0.1609964370727539,0.2686319351196289,-0.0989912748336792
1790333695785414400,6.245414306640625,-0.5604372024536133,0.03098011016845703,0.013488173484802246
1790333695801907700,6.26190771484375,-0.4537363052368164,-0.060207366943359375,-0.20466303825378418
1790333695818345200,6.27834521484375,-0.6781880855560303,0.024122238159179688,-0.17525005340576172
1790333695834837200,6.294837158203125,-0.9451065063476562,-0.03399372100830078,-0.09749019145965576
1790333695851307300,6.311307373046875,-0.9712240695953369,0.14495468139648438,-0.24536073207855225
1790333695867804200,6.32780419921875,-1.1577999591827393,0.09152698516845703,-0.12642240524291992
1790333695884299500,6.344299560546875,-1.0661499500274658,0.00010776519775390625,-0.15636229515075684
1790333695900746500,6.36074658203125,-0.6908025741577148,0.0055332183837890625,-0.3101685047149658
1790333695917239600,6.377239501953125,-0.4094531536102295,0.22759437561035156,-0.4804966449737549
1790333695933707500,6.39370751953125,-0.41058802604675293,0.16110897064208984,-0.16133809089660645
1790333695950164200,6.410164306640625,-0.003421783447265625,-0.023019790649414062,-0.23311614990234375
1790333695966658600,6.426658447265625,0.4926033020019531,0.00029087066650390625,-0.5409632921218872
1790333695983137000,6.443136962890625,0.5102849006652832,-0.08936309814453125,-0.19709086418151855
1790333695999602400,6.4596025390625,0.6002984046936035,-0.01672840118408203,-0.0046727657318115234
1790333696016048400,6.47604833984375,0.2947530746459961,-0.031215667724609375,0.0843343734741211
1790333696032531200,6.49253125,-0.012065887451171875,-0.1248626708984375,-0.0431368350982666
1790333696048999400,6.50899951171875,-0.030514240264892578,-0.16258525848388672,-0.2584468126296997
1790333696065382100,6.525382080078125,-0.08691883087158203,-0.12504959106445312,-0.42043864727020264
1790333696081851100,6.54185107421875,-0.21921920776367188,-0.08595466613769531,-0.42140281200408936
1790333696098328000,6.558328125,-0.030047893524169922,-0.11211585998535156,-0.43327152729034424
1790333696114781700,6.57478173828125,0.25655508041381836,-0.005234718322753906,-0.4987907409667969
1790333696131278000,6.591278076171875,0.1698307991027832,0.018632888793945312,-0.33858752250671387
1790333696147751700,6.607751708984375,0.3055887222290039,-0.018560409545898438,-0.26779723167419434
1790333696164245000,6.624244873046875,0.4388918876647949,-0.014542579650878906,-0.3890268802642822
1790333696180767200,6.640767333984375,0.2512650489807129,0.05547618865966797,-0.33995747566223145
1790333696197232000,6.657232177734375,0.07908201217651367,0.05049705505371094,-0.2946903705596924
1790333696213724000,6.673723876953125,-0.22484302520751953,0.07593727111816406,-0.3797926902770996
1790333696230245600,6.69024560546875,-0.49724411964416504,-0.07876205444335938,-0.28269505500793457
1790333696246735600,6.706735595703125,-0.497081995010376,-0.1352987289428711,-0.3806314468383789
1790333696263242800,6.72324267578125,-0.6397113800048828,-0.1608257293701172,-0.23834586143493652
1790333696279724300,6.739724365234375,-0.53794264793396,-0.0914764404296875,-0.163804292678833
1790333696296255500,6.75625537109375,-0.5569024085998535,-0.08069801330566406,-0.007033824920654297
1790333696312733000,6.77273291015625,-0.3608849048614502,-0.09681892395019531,-0.10445165634155273
1790333696329227300,6.789227294921875,-0.22788333892822266,0.06805801391601562,-0.13276410102844238
1790333696345696300,6.8056962890625,-0.1004343032836914,-0.01810932159423828,0.09580111503601074
1790333696362130400,6.82213037109375,0.14771080017089844,0.3257598876953125,-0.13859820365905762
1790333696378592800,6.8385927734375,-0.010671615600585938,0.523594856262207,0.08989953994750977
1790333696395053300,6.85505322265625,0.1816387176513672,0.6348752975463867,0.13535046577453613
1790333696411515400,6.871515380859375,0.14931201934814453,0.37923622131347656,0.5336400270462036
1790333696427982600,6.887982666015625,0.585601806640625,0.11010551452636719,0.5632160902023315
1790333696444468500,6.904468505859375,0.7392597198486328,-0.09802818298339844,0.6735081672668457
1790333696460932600,6.9209326171875,0.8980503082275391,-0.18436813354492188,0.5912442207336426
1790333696477436200,6.937436279296875,0.5551648139953613,-0.08660697937011719,0.48077452182769775
1790333696493912800,6.953912841796875,0.11523056030273438,-0.18752574920654297,0.5492136478424072
1790333696510409000,6.970408935546875,-0.15224647521972656,0.25477027893066406,0.2312256097793579
1790333696526908000,6.986907958984375,-0.5301711559295654,0.4629383087158203,0.4006613492965698
1790333696543459800,7.0034599609375,-0.5018970966339111,0.8814058303833008,0.28892970085144043
1790333696559907800,7.019907958984375,-0.4349629878997803,0.6109733581542969,0.6851001977920532
1790333696576399000,7.036399169921875,0.22560405731201172,0.40125083923339844,0.40191590785980225
1790333696592871200,7.05287109375,0.21782922744750977,0.014532089233398438,0.3045649528503418
1790333696609314800,7.069314697265625,0.4826064109802246,-0.43105220794677734,-0.13002228736877441
1790333696625811200,7.085811279296875,0.41768646240234375,-0.5380516052246094,-0.7280709743499756
1790333696642290200,7.102290283203125,0.06854104995727539,-0.2811431884765625,-1.1446945667266846
1790333696658780700,7.11878076171875,-0.6511373519897461,-0.02633380889892578,-0.8778612613677979
1790333696675271200,7.135271240234375,-0.7768983840942383,-0.16519641876220703,-0.3434922695159912
1790333696691743000,7.151742919921875,-0.3474290370941162,0.052361488342285156,-0.30472350120544434
1790333696708244700,7.16824462890625,-0.10964345932006836,-0.10788726806640625,0.20091795921325684
1790333696724739800,7.18473974609375,0.4259657859802246,0.02505779266357422,-0.058037757873535156
1790333696741260300,7.20126025390625,0.23782062530517578,0.04334068298339844,-0.26393699645996094
1790333696757739000,7.217739013671875,-0.2393360137939453,0.21599483489990234,-0.6208844184875488
1790333696774241800,7.23424169921875,-0.665806770324707,0.20003700256347656,-0.38826656341552734
1790333696790743000,7.250742919921875,-0.3417956829071045,0.2540006637573242,-0.22416019439697266
1790333696807198200,7.2671982421875,-0.09340715408325195,0.0693826675415039,0.11867451667785645
1790333696823663600,7.28366357421875,0.25513696670532227,-0.2388467788696289,-0.13181400299072266
1790333696840104000,7.30010400390625,0.39087820053100586,-0.13046646118164062,-0.8595414161682129
1790333696856599300,7.316599365234375,0.08517217636108398,0.028455734252929688,-0.9956264495849609
1790333696873066500,7.33306640625,-0.2743339538574219,0.15588855743408203,-0.6658675670623779
1790333696889545500,7.34954541015625,-0.2937045097351074,0.10330009460449219,-0.1323714256286621
1790333696906051800,7.3660517578125,-0.003154754638671875,0.07203483581542969,-0.010718107223510742
1790333696922577200,7.3825771484375,0.011287689208984375,0.13744163513183594,0.12444519996643066
1790333696939050500,7.399050537109375,-0.205474853515625,0.20722389221191406,0.2801070213317871
1790333696955547600,7.415547607421875,-0.6329350471496582,-0.13186264038085938,0.6059609651565552
1790333696972035800,7.432035888671875,-0.8638932704925537,-0.5897116661071777,0.3524191379547119
1790333696988526800,7.44852685546875,-0.9516513347625732,-0.8531041145324707,-0.11150574684143066
1790333697005036500,7.46503662109375,-0.7738289833068848,-0.8775496482849121,-0.3944704532623291
1790333697021499400,7.48149951171875,-0.6290779113769531,-0.6343917846679688,-0.41716480255126953
1790333697038016000,7.49801611328125,-0.5854129791259766,-0.2957649230957031,-0.1518564224243164
1790333697054476300,7.514476318359375,-0.2081770896911621,0.19162464141845703,0.07369422912597656
1790333697070901500,7.530901611328125,0.32375478744506836,0.6844978332519531,0.7664402723312378
1790333697087399200,7.547399169921875,0.8285908699035645,0.7045621871948242,1.7991561889648438
1790333697103869700,7.56386962890625,1.5965089797973633,0.31506919860839844,2.2534947395324707
1790333697120411400,7.580411376953125,2.2834644317626953,0.24580669403076172,1.9459770917892456
1790333697136860700,7.596860595703125,2.413790225982666,0.1827220916748047,1.7465742826461792
1790333697153358800,7.61335888671875,2.3958535194396973,-0.08451366424560547,1.8944876194000244
1790333697169889800,7.629889892578125,2.596220016479492,0.0093536376953125,1.524366855621338
1790333697186338300,7.64633837890625,2.2971677780151367,0.0456085205078125,1.101966381072998
1790333697202818300,7.662818359375,1.7393560409545898,-0.2755918502807617,1.1218401193618774
1790333697219287800,7.679287841796875,1.546152114868164,-0.6022086143493652,0.8907110691070557
1790333697235735300,7.6957353515625,1.0763764381408691,-0.658750057220459,0.4927864074707031
1790333697252206600,7.71220654296875,0.41967201232910156,-0.2878742218017578,0.07479023933410645
1790333697268651300,7.7286513671875,-0.5493597984313965,-0.17181396484375,0.09439444541931152
1790333697285187600,7.7451875,-1.1954131126403809,0.05339622497558594,-0.1269381046295166
1790333697301659000,7.761658935546875,-1.4147748947143555,-0.05628395080566406,-0.3447422981262207
1790333697318160100,7.77816015625,-0.951606035232544,-0.26151466369628906,-0.1422743797302246
1790333697334637600,7.794637451171875,0.0619044303894043,-0.6482276916503906,0.20743155479431152
1790333697351085800,7.8110859375,1.047107219696045,-0.39190006256103516,0.2406775951385498
1790333697367590400,7.82759033203125,1.4470939636230469,-0.30416107177734375,0.6416211128234863
1790333697384073500,7.844073486328125,1.4604134559631348,-0.3005385398864746,1.1835007667541504
1790333697400542200,7.860542236328125,1.5094008445739746,-0.3907179832458496,1.4800739288330078
1790333697417047600,7.877047607421875,1.3558745384216309,-0.12791728973388672,1.3383386135101318
1790333697433525000,7.89352490234375,0.8278088569641113,-0.06939506530761719,1.2323318719863892
1790333697450032000,7.9100322265625,0.404630184173584,-0.048867225646972656,1.1782408952713013
1790333697466530800,7.92653076171875,0.22594976425170898,-0.2937173843383789,1.0793168544769287
1790333697483055900,7.943055908203125,0.2529463768005371,-0.24796628952026367,0.4732177257537842
1790333697499539200,7.959539306640625,-0.11434125900268555,-0.28057146072387695,0.03861427307128906
1790333697515986000,7.97598583984375,-0.13565397262573242,-0.3823404312133789,-0.40583181381225586
1790333697532518100,7.99251806640625,-0.0906987190246582,-0.5942330360412598,-0.5754704475402832
1790333697548994600,8.00899462890625,0.5123076438903809,-0.608314037322998,-0.6815414428710938
1790333697565509000,8.025509033203125,1.1427054405212402,-0.34550905227661133,-0.7861638069152832
1790333697581974800,8.041974853515624,1.207789421081543,-0.24935245513916016,-0.3922426700592041
1790333697598471200,8.05847119140625,1.1614866256713867,-0.2816600799560547,-0.1295475959777832
1790333697614971600,8.0749716796875,1.0309233665466309,-0.6206541061401367,0.003107309341430664
1790333697631468800,8.09146875,1.2241649627685547,-0.5928807258605957,-0.43503713607788086
1790333697647992800,8.107992919921875,0.846440315246582,-0.37984228134155273,-0.4819025993347168
1790333697664483000,8.124483154296875,0.10633563995361328,-0.17494630813598633,-0.2709167003631592
1790333697680955600,8.14095556640625,-0.19498920440673828,-0.10885810852050781,0.02498936653137207
1790333697697450800,8.15745068359375,-0.2963733673095703,-0.33851146697998047,0.07326102256774902
1790333697713945000,8.173945068359375,-0.4466376304626465,0.04283428192138672,-0.18574309349060059
1790333697730412800,8.190412841796874,-1.0268220901489258,0.597287654876709,0.3501720428466797
1790333697746895400,8.206895263671875,-1.1176607608795166,1.0239219665527344,1.3494938611984253
1790333697763370000,8.223369873046876,-0.5175065994262695,0.7806010246276855,2.0731353759765625
1790333697779897300,8.2398974609375,0.3534727096557617,0.26252079010009766,1.853487253189087
1790333697796332800,8.256332763671875,0.36909914016723633,-0.15030241012573242,1.7808886766433716
1790333697812809200,8.272809326171876,0.09737682342529297,0.1690382957458496,1.6052234172821045
1790333697829310000,8.28931005859375,-0.585017204284668,0.31695127487182617,2.261626720428467
1790333697845780200,8.3057802734375,-1.051867961883545,-0.17864274978637695,2.180891990661621
1790333697862316000,8.32231591796875,-1.2206816673278809,-0.8135218620300293,1.3226351737976074
1790333697878770400,8.3387705078125,-1.4486966133117676,-0.5774493217468262,0.3723015785217285
1790333697895236900,8.35523681640625,-2.718609571456909,0.16312646865844727,0.08033084869384766
1790333697911741400,8.371741455078125,-3.0319409370422363,0.17087173461914062,0.30089282989501953
1790333697928182500,8.3881826171875,-1.4667439460754395,-0.4919929504394531,0.4819068908691406
1790333697944655400,8.4046552734375,0.35759544372558594,-0.9915676116943359,-0.39122915267944336
1790333697961145900,8.421145751953125,1.494809627532959,-0.9766054153442383,-1.3352251052856445
1790333697977586000,8.4375859375,1.6767935752868652,-1.0143752098083496,-1.511204719543457
1790333697994082800,8.454082763671876,1.2988767623901367,-1.1079764366149902,-1.3346028327941895
1790333698010555400,8.470555419921874,1.053926944732666,-1.2415170669555664,-1.5005645751953125
1790333698027051800,8.4870517578125,1.0230708122253418,-1.2684459686279297,-1.806957721710205
1790333698043524900,8.50352490234375,0.7735505104064941,-1.2857909202575684,-2.0459346771240234
1790333698060070700,8.520070556640626,0.7818784713745117,-1.4095346927642822,-1.59987211227417
1790333698076566000,8.53656591796875,1.3227357864379883,-1.925053358078003,-0.4064784049987793
1790333698093008000,8.5530078125,1.926924705505371,-2.204638957977295,0.7634313106536865
1790333698109507300,8.56950732421875,2.350925922393799,-1.428349256515503,0.607445478439331
1790333698126028800,8.58602880859375,1.7719230651855469,-0.8853788375854492,-0.13846778869628906
1790333698142420500,8.60242041015625,0.5811104774475098,-0.9648294448852539,-0.4932427406311035
1790333698158919000,8.6189189453125,-0.7667326927185059,-1.064417839050293,-0.7713160514831543
1790333698175375000,8.635375,-1.1948885917663574,-0.8863496780395508,-0.3417799472808838
1790333698191883500,8.651883544921875,-0.8622164726257324,-0.3488025665283203,-0.5099170207977295
1790333698208378400,8.66837841796875,-0.5375370979309082,-0.12472391128540039,-0.91652512550354
1790333698224877800,8.6848779296875,-0.38484764099121094,0.13395023345947266,-1.915956735610962
1790333698241360600,8.701360595703125,-0.2589855194091797,0.2342057228088379,-3.597421169281006
1790333698257834000,8.717833984375,-0.9236207008361816,-0.07215595245361328,-4.3698930740356445
1790333698274362000,8.734362060546875,-0.9930572509765625,-1.0008807182312012,-2.3971991539001465
1790333698290827500,8.75082763671875,0.2124934196472168,-1.0818233489990234,-1.5682156085968018
1790333698307316500,8.76731640625,0.8940820693969727,-0.7550387382507324,-1.3170499801635742
1790333698323792100,8.783792236328125,1.1551008224487305,-0.6728043556213379,-1.009737253189087
1790333698340246500,8.80024658203125,0.26149892807006836,-0.8150911331176758,-0.9143991470336914
1790333698356725500,8.8167255859375,-0.5924720764160156,-1.1214523315429688,-0.5819365978240967
1790333698373175600,8.833175537109375,-0.6672711372375488,-1.2159209251403809,0.4267306327819824
1790333698389656000,8.849656005859375,-0.2628288269042969,-0.9806976318359375,1.6596176624298096
1790333698406163000,8.866162841796875,-0.20963144302368164,-0.6930031776428223,2.1818430423736572
1790333698422616300,8.8826162109375,-0.19433259963989258,-0.5686550140380859,1.9920387268066406
1790333698439108900,8.89910888671875,-0.03785371780395508,-0.7586808204650879,1.2830579280853271
1790333698455580000,8.915579833984374,-0.08540058135986328,-0.9820609092712402,0.5590114593505859
1790333698472056600,8.932056640625,-0.12071990966796875,-1.2226791381835938,0.386704683303833
1790333698488542700,8.948542724609375,-0.26039981842041016,-1.1723480224609375,0.5114402174949646
1790333698504991500,8.964991455078126,0.22292137145996094,-0.8808150291442871,0.7933679223060608
1790333698521525800,8.98152587890625,1.2320961952209473,-0.4905204772949219,1.3235998153686523
1790333698537975000,8.99797509765625,1.2778868675231934,-0.2931694984436035,1.8782051801681519
1790333698554462000,9.0144619140625,0.6639184951782227,-0.2534217834472656,1.9210636615753174
1790333698570936800,9.030936767578124,-0.21705913543701172,-0.11098861694335938,1.5273126363754272
1790333698587381000,9.047381103515624,-0.6264724731445312,0.1677842140197754,1.384157419204712
1790333698603883300,9.06388330078125,-0.24601507186889648,0.6665892601013184,1.5788204669952393
1790333698620334800,9.0803349609375,0.4226241111755371,1.008134365081787,1.9489024877548218
1790333698636808000,9.096807861328125,0.5568060874938965,0.9738144874572754,2.137078046798706
1790333698653279200,9.113279296875,0.49163007736206055,1.0068540573120117,2.1271724700927734
1790333698669725400,9.129725341796876,0.11356830596923828,1.1573467254638672,2.13655686378479
1790333698686243000,9.1462431640625,-0.2036113739013672,1.0758228302001953,1.9973115921020508
1790333698702746000,9.16274609375,0.1624774932861328,1.1817288398742676,1.8396000862121582
1790333698719188500,9.1791884765625,0.5792088508605957,1.0798311233520508,1.5206375122070312
1790333698735686700,9.195686767578126,0.876093864440918,0.6712913513183594,0.9505423307418823
1790333698752180700,9.2121806640625,1.0117573738098145,0.30371999740600586,0.4811725616455078
1790333698768707800,9.228707763671874,0.9517345428466797,0.21279382705688477,0.7315778732299805
1790333698785147100,9.245147216796875,0.4725174903869629,0.17490434646606445,1.2215255498886108
1790333698801600500,9.2616005859375,-0.12435388565063477,0.2784004211425781,1.4603115320205688
1790333698818068500,9.278068359375,-0.22884750366210938,0.309720516204834,1.2129085063934326
1790333698834514400,9.294514404296875,-0.6455345153808594,0.09955978393554688,1.0846827030181885
1790333698851013000,9.31101318359375,-0.5351614952087402,-0.0439457893371582,0.945202112197876
1790333698867459800,9.3274599609375,-1.2886419296264648,0.7611050605773926,2.0559706687927246
1790333698883925500,9.343925537109374,-0.8241720199584961,-0.2680935859680176,0.6257811188697815
1790333698900411400,9.360411376953126,-1.2698650360107422,0.3068356513977051,0.9504749774932861
1790333698916857900,9.37685791015625,-0.3984951972961426,0.5686264038085938,1.0338711738586426
1790333698933364000,9.393364013671874,0.7445101737976074,0.6699347496032715,0.8727068305015564
1790333698949858000,9.409858154296876,1.9612364768981934,0.3721017837524414,0.834266185760498
1790333698966322700,9.42632275390625,2.3239188194274902,-0.22525978088378906,0.3298822343349457
1790333698982801200,9.44280126953125,1.8276262283325195,-0.7055521011352539,-0.3862907886505127
1790333698999243500,9.459243408203125,1.1424007415771484,-1.0400700569152832,-1.0537655353546143
1790333699015767600,9.475767578125,0.7845783233642578,-1.1506915092468262,-1.0404493808746338
1790333699032206300,9.492206298828124,0.6449270248413086,-1.2742304801940918,-0.49204787611961365
1790333699048688000,9.508688232421875,0.5914535522460938,0.05912590026855469,0.6184314489364624
1790333699065105000,9.52510498046875,0.9109091758728027,-0.26538753509521484,0.5472650527954102
1790333699081542400,9.54154248046875,0.9975724220275879,-1.1666202545166016,-0.8495658040046692
1790333699097993200,9.5579931640625,0.1243743896484375,0.9378023147583008,0.9184484481811523
1790333699114462700,9.574462646484376,-0.5083484649658203,0.759584903717041,1.7912518978118896
1790333699130937900,9.590937744140625,-0.6522502899169922,0.039076805114746094,0.4643118977546692
1790333699147438300,9.607438232421876,-1.1525325775146484,-0.04871511459350586,-0.49036139249801636
1790333699163881200,9.623881103515625,-1.6027297973632812,0.5627474784851074,0.18283720314502716
1790333699180364800,9.64036474609375,-1.3349065780639648,0.4901547431945801,0.49309220910072327
1790333699196831500,9.65683154296875,-1.2038559913635254,-0.05834341049194336,0.38869601488113403
1790333699213300000,9.673300048828125,-1.2091245651245117,-0.4223790168762207,0.3365226984024048
1790333699229749000,9.6897490234375,-0.5593118667602539,-0.3271012306213379,0.5008965730667114
1790333699246191600,9.706191650390625,1.0345373153686523,0.002270221710205078,-0.32855379581451416
1790333699262714000,9.722714111328125,1.6889257431030273,0.22113323211669922,-0.6407027244567871
1790333699279149600,9.739149658203125,2.384153366088867,0.07305574417114258,-0.5572453141212463
1790333699295654700,9.755654541015625,2.5874037742614746,0.04250764846801758,-0.25443804264068604
1790333699312155600,9.77215576171875,0.7914919853210449,0.07939720153808594,0.21368587017059326
1790333699328625400,9.78862548828125,-0.45429563522338867,0.2512664794921875,0.15281039476394653
1790333699345118200,9.8051181640625,-1.219815731048584,-0.01417398452758789,-0.008263051509857178
1790333699361565700,9.821565673828125,-1.7859811782836914,-0.631812572479248,1.747433066368103
1790333699378026200,9.838026123046875,-1.4956250190734863,-0.08597660064697266,2.1638479232788086
1790333699394524200,9.854524169921875,-0.5612921714782715,0.37230539321899414,1.969404935836792
1790333699410963500,9.87096337890625,-0.11825847625732422,0.516639232635498,1.6261649131774902
1790333699427457500,9.88745751953125,-0.33292293548583984,0.10093164443969727,0.5100879669189453
1790333699443918800,9.9039189453125,-1.3221855163574219,0.11597919464111328,-0.6322991847991943
1790333699460382000,9.9203818359375,-1.0200209617614746,0.2829413414001465,-1.3085126876831055
1790333699476884700,9.936884765625,-0.7841176986694336,0.17464113235473633,-2.076260566711426
1790333699493353700,9.953353759765625,-0.7564129829406738,-0.11614370346069336,-2.33992600440979
1790333699509842200,9.96984228515625,0.32836437225341797,-0.7700252532958984,-1.145639419555664
1790333699526304300,9.98630419921875,1.701756477355957,-0.2822995185852051,0.19134429097175598
1790333699542782500,10.002782470703124,2.4396886825561523,-0.09043359756469727,0.1143578290939331
1790333699559273200,10.019273193359375,4.204334259033203,0.07965707778930664,-0.5880493521690369
1790333699575774000,10.03577392578125,5.040719032287598,-0.2323298454284668,-0.6500363945960999
1790333699592238000,10.052238037109374,2.1499528884887695,-0.7156329154968262,-0.17892611026763916
1790333699608701000,10.068700927734374,-0.11081600189208984,-0.8061923980712891,-0.010015413165092468
1790333699625197300,10.085197265625,-1.0455222129821777,-0.6136069297790527,-0.7182031273841858
1790333699641691100,10.101691162109375,-0.5958681106567383,-1.1939983367919922,-1.6762890815734863
1790333699658125800,10.118125732421875,-1.4533061981201172,-1.6550140380859375,-1.9982171058654785
1790333699674627000,10.134626953125,-2.54787540435791,-1.0158629417419434,-1.5509511232376099
1790333699691106800,10.15110693359375,-3.425841808319092,0.8068900108337402,-0.30221930146217346
1790333699707603200,10.167603271484374,-5.186192989349365,1.1234798431396484,-0.8608667254447937
1790333699724078300,10.184078369140625,0.7789688110351562,-0.42293453216552734,0.5145014524459839
1790333699740541000,10.200541015625,1.7571520805358887,-1.2530245780944824,0.9248059988021851
1790333699757063200,10.217063232421875,1.6302790641784668,-1.1790428161621094,0.7540098428726196
1790333699773524000,10.23352392578125,0.7300295829772949,-0.812190055847168,1.7458338737487793
1790333699790020900,10.250020751953125,-1.2414922714233398,-0.4174933433532715,1.0955090522766113
1790333699806491400,10.266491455078125,-1.7421598434448242,-0.28990936279296875,-0.805798351764679
1790333699822929200,10.28292919921875,-0.31223297119140625,0.06643915176391602,-3.3183417320251465
1790333699839425300,10.29942529296875,-1.136460304260254,-0.4325714111328125,-2.5961010456085205
1790333699855901000,10.31590087890625,-0.9636063575744629,-0.38487768173217773,-0.44572484493255615
1790333699872295200,10.332295166015625,1.233968734741211,0.26771020889282227,1.8816213607788086
1790333699888734700,10.348734619140625,1.6606941223144531,1.233755111694336,2.244276523590088
1790333699905201700,10.36520166015625,0.2012033462524414,1.2581911087036133,1.5867953300476074
1790333699921679400,10.381679443359374,1.6885690689086914,1.304718017578125,0.3998827040195465
1790333699938161000,10.398160888671875,1.181595802307129,0.4608187675476074,-0.2388831377029419
1790333699954657800,10.41465771484375,-0.14998817443847656,0.15070629119873047,-0.8025635480880737
1790333699971128000,10.431128173828125,0.0063571929931640625,-0.09749746322631836,-1.7801426649093628
1790333699987597000,10.44759716796875,-3.2781167030334473,-0.12571477890014648,-1.0960283279418945
1790333700004062000,10.46406201171875,-5.59945011138916,1.1074094772338867,-1.1033477783203125
1790333700020526000,10.480526123046875,-2.5810794830322266,0.2990717887878418,2.1309099197387695
1790333700037001500,10.49700146484375,1.7475109100341797,1.462015151977539,2.492370843887329
1790333700053471500,10.513471435546874,1.6978034973144531,2.311065673828125,1.0195975303649902
1790333700069905700,10.52990576171875,2.4954471588134766,0.7121834754943848,2.8909761905670166
1790333700086399200,10.546399169921875,2.6531362533569336,0.35366392135620117,1.1711440086364746
1790333700102847500,10.562847412109376,0.8832979202270508,0.5047693252563477,-0.17917132377624512
1790333700119349500,10.579349609375,-0.23763656616210938,0.45871734619140625,0.21104496717453003
1790333700135883000,10.595883056640625,-0.2433328628540039,0.4735379219055176,0.8781123161315918
1790333700152322300,10.612322265625,0.4808340072631836,0.2820706367492676,0.34676429629325867
1790333700168820700,10.62882080078125,1.0501337051391602,-0.0016889572143554688,-0.9459509253501892
1790333700185288000,10.645287841796875,0.9101543426513672,-0.8275938034057617,-1.6080338954925537
1790333700201757700,10.6617578125,-1.4691228866577148,-0.784644603729248,-1.8070383071899414
1790333700218263000,10.678262939453125,-2.0315942764282227,-0.32482051849365234,-0.10403025150299072
1790333700234705000,10.694704833984375,-1.0905489921569824,0.3165416717529297,-0.31189197301864624
1790333700251235300,10.7112353515625,1.217940330505371,0.47581958770751953,-0.9001350402832031
1790333700267672800,10.7276728515625,0.9993515014648438,0.11873817443847656,-0.04219168424606323
1790333700284154600,10.744154541015625,-1.1535534858703613,-0.7620830535888672,1.0298711061477661
1790333700300648200,10.760648193359375,-4.568553924560547,-0.29834985733032227,3.6435437202453613
1790333700317094700,10.7770947265625,-2.802311420440674,0.8525114059448242,2.062808036804199
1790333700333565400,10.7935654296875,0.8131198883056641,2.0512027740478516,-0.8494837880134583
1790333700350039800,10.810039794921876,1.3591060638427734,0.9078917503356934,0.08346161246299744
1790333700366540300,10.826540283203125,0.8647775650024414,-0.7162995338439941,2.146111011505127
1790333700383067000,10.84306689453125,-0.34527015686035156,-1.1340491771697998,1.5819592475891113
1790333700399510000,10.859510009765625,-1.0978646278381348,-1.0440704822540283,-2.8038947582244873
1790333700415990300,10.875990234375,-1.482337474822998,-1.1039183139801025,-2.219794750213623
1790333700432485400,10.8924853515625,-0.07886314392089844,-1.194765567779541,1.032072901725769
1790333700448952600,10.90895263671875,0.8044443130493164,-0.9130675792694092,1.4234693050384521
1790333700465431600,10.925431640625,-0.25543880462646484,0.07575464248657227,1.499014139175415
1790333700481900500,10.941900634765625,-1.1024432182312012,-0.18677949905395508,0.760665237903595
1790333700498453800,10.958453857421874,-2.581195831298828,-0.7285966873168945,0.27682214975357056
1790333700514913800,10.974913818359376,-2.9516592025756836,-0.7328963279724121,-0.16213607788085938
1790333700531411200,10.9914111328125,-2.6644649505615234,-0.3593897819519043,0.174446702003479
1790333700547879200,11.007879150390625,-0.6035909652709961,-0.6733357906341553,0.58937668800354
1790333700564317200,11.024317138671876,-0.04556083679199219,-0.6380798816680908,-0.159554123878479
1790333700580811300,11.040811279296875,-0.9303522109985352,-0.572176456451416,0.023516416549682617
1790333700597280800,11.05728076171875,-1.401169776916504,-1.1435534954071045,0.27896595001220703
1790333700613776100,11.073776123046875,-3.0003156661987305,-0.9715805053710938,-1.3808468580245972
1790333700630270500,11.0902705078125,-4.534844398498535,-1.150087594985962,-1.0068254470825195
1790333700646750500,11.10675048828125,-6.158376693725586,-0.30855727195739746,-1.4279776811599731
1790333700663260000,11.123260009765625,-6.892397880554199,-0.3764808177947998,-1.9999475479125977
1790333700679743000,11.139742919921876,-5.775458335876465,-0.9437074661254883,-1.229950189590454
1790333700696205800,11.156205810546876,-5.462808609008789,-0.06589484214782715,-0.9272894263267517
1790333700712672000,11.172672119140625,-6.164212226867676,0.3339228630065918,-0.5439730882644653
1790333700729171500,11.18917138671875,-4.513065338134766,-0.33572912216186523,-1.1937484741210938
1790333700745669400,11.20566943359375,-2.5871171951293945,-0.37384510040283203,-4.2441630363464355
1790333700762155800,11.22215576171875,-1.6187834739685059,-0.5717906951904297,-3.169011116027832
1790333700778655200,11.2386552734375,1.108199119567871,-0.1844879388809204,0.06708928942680359
1790333700795108900,11.25510888671875,0.4464225769042969,0.6797736883163452,-0.733376681804657
1790333700811579100,11.2715791015625,-0.11358642578125,0.05806159973144531,-0.4243219792842865
1790333700828047000,11.288047119140625,2.663400650024414,-0.42833828926086426,1.612175464630127
1790333700844494000,11.304494140625,3.8050994873046875,0.6784258484840393,2.4219207763671875
1790333700860988700,11.32098876953125,1.7683792114257812,1.9180500507354736,2.1514172554016113
1790333700877520100,11.33752001953125,-0.8251514434814453,3.3515493869781494,0.5587950944900513
1790333700893961700,11.353961669921874,2.5081520080566406,3.701429605484009,0.3516063690185547
1790333700910459000,11.370458984375,1.7491207122802734,3.6529765129089355,2.829181671142578
1790333700926909200,11.3869091796875,0.6215229034423828,3.2940759658813477,4.755446434020996
1790333700943411200,11.4034111328125,2.651163101196289,2.578744411468506,5.083933353424072
1790333700959924500,11.419924560546875,4.943292617797852,1.7946662902832031,3.4595773220062256
1790333700976402000,11.43640185546875,6.606653213500977,1.3596203327178955,2.775273323059082
1790333700992935400,11.452935302734375,6.131572723388672,1.0709363222122192,1.844537615776062
1790333701009380400,11.46938037109375,3.4066953659057617,0.021767616271972656,1.3252943754196167
1790333701025863400,11.485863525390625,-0.13141441345214844,-0.9120087623596191,0.7248951196670532
1790333701042372900,11.502372802734374,-1.530989170074463,-1.2139720916748047,0.4670252799987793
1790333701058788600,11.51878857421875,-3.639387607574463,-1.7215118408203125,1.3216124773025513
1790333701075203600,11.53520361328125,-4.337704658508301,-2.4949560165405273,2.019754409790039
1790333701091623000,11.551622802734375,-2.805100440979004,-3.0681257247924805,1.5556573867797852
1790333701108099000,11.56809912109375,-0.9961481094360352,-3.5785281658172607,1.1470062732696533
1790333701124565200,11.584565185546875,0.681706428527832,-3.6617820262908936,0.6799466013908386
1790333701141016000,11.60101611328125,4.5999860763549805,-26.56816864013672,-26.991504669189453
1790333701157475800,11.617475830078124,0.5451879501342773,4.232463836669922,-4.628162860870361
1790333701173845200,11.63384521484375,7.169866561889648,-1.4921422004699707,3.2703304290771484
1790333701190287400,11.650287353515624,6.851430892944336,-4.268743515014648,4.813022613525391
1790333701206754600,11.666754638671875,7.84229850769043,-1.2194280624389648,1.3505761623382568
1790333701223199000,11.683198974609375,3.9384946823120117,-0.6989998817443848,2.791804552078247
1790333701239671000,11.699671142578126,-0.16741085052490234,-1.0602481365203857,2.072948455810547
1790333701256113700,11.71611376953125,-2.7980189323425293,0.023865938186645508,1.8114361763000488
1790333701272556500,11.732556640625,-7.478343963623047,0.5779228210449219,0.3095635175704956
1790333701289012000,11.749011962890625,-9.823974609375,2.0294666290283203,1.078818440437317
1790333701305484800,11.76548486328125,-6.22755241394043,1.917885184288025,0.3380263149738312
1790333701321943600,11.781943603515625,-2.6187024116516113,1.0945816040039062,1.6326390504837036
1790333701338385700,11.7983857421875,1.7966480255126953,0.7007832527160645,2.8271186351776123
1790333701354825000,11.814824951171875,4.1502685546875,0.8215396404266357,2.660520315170288
1790333701371288000,11.8312880859375,6.035550117492676,0.7235980033874512,2.478764533996582
1790333701387725000,11.84772509765625,4.806225776672363,-0.03484821319580078,1.1610907316207886
1790333701404179000,11.864178955078126,5.942167282104492,1.2986059188842773,3.0741844177246094
1790333701420652300,11.88065234375,1.37127685546875,-0.3840012550354004,3.7949771881103516
1790333701437095400,11.897095458984374,-1.2059082984924316,-0.3674492835998535,1.3047046661376953
1790333701453535700,11.91353564453125,-3.2186431884765625,-0.9229474067687988,-0.20941124856472015
1790333701469972700,11.92997265625,-1.0549368858337402,1.042344570159912,0.5330259203910828
1790333701486437600,11.946437744140624,-4.565884590148926,-1.3985958099365234,-1.2874386310577393
1790333701502877000,11.962876953125,2.5189809799194336,-1.1882915496826172,2.0869827270507812
1790333701519317200,11.979317138671876,-1.404141902923584,-3.416593551635742,-5.000733852386475
1790333701535775500,11.995775390625,1.5298094749450684,1.354400634765625,0.6116693019866943
1790333701552172000,12.012172119140626,-1.7585711479187012,-2.5363759994506836,-1.473226547241211
1790333701568614100,12.0286142578125,1.6262807846069336,-0.5010166168212891,2.009606122970581
1790333701585058300,12.045058349609375,0.3739304542541504,1.4563326835632324,1.0575813055038452
1790333701601505300,12.06150537109375,1.2401533126831055,1.357180118560791,1.01289963722229
1790333701617964800,12.07796484375,5.63498067855835,3.469331741333008,-1.0019185543060303
1790333701634410200,12.09441015625,3.1453819274902344,5.418208122253418,-1.4489613771438599
1790333701650854700,12.110854736328125,1.1557049751281738,6.57362699508667,-0.2710166275501251
1790333701667303200,12.12730322265625,8.876729965209961,6.509593486785889,1.2167268991470337
1790333701683751400,12.14375146484375,-19.7117919921875,-23.488248825073242,-53.9774055480957
1790333701700204300,12.160204345703125,11.273048400878906,-6.401870250701904,9.970312118530273
1790333701716653800,12.17665380859375,13.111610412597656,-3.1858997344970703,2.7472896575927734
1790333701733132300,12.19313232421875,4.044618129730225,-12.314568519592285,-9.132885932922363
1790333701749580000,12.209580078125,-18.844568252563477,-14.603222846984863,7.668510437011719
1790333701766028000,12.226028076171875,3.5342068672180176,-7.915571689605713,0.7285370230674744
1790333701782472200,12.24247216796875,-1.1553664207458496,-0.8435182571411133,2.267444372177124
1790333701798917400,12.25891748046875,2.5879039764404297,-2.2769317626953125,2.9615352153778076
1790333701815245300,12.275245361328125,26.616191864013672,5.4698638916015625,3.043527603149414
1790333701831691000,12.29169091796875,-7.881249904632568,0.11765718460083008,0.4703792333602905
1790333701848136200,12.30813623046875,-2.7396645545959473,2.0082201957702637,-0.058803439140319824
1790333701864583000,12.3245830078125,-1.3170437812805176,7.9551167488098145,4.869406223297119
1790333701881001500,12.34100146484375,4.576260566711426,-3.2054901123046875,-9.015802383422852
1790333701896375800,12.356375732421874,-13.463747024536133,-1.9437832832336426,3.2777087688446045
1790333701912629500,12.37262939453125,-2.309641122817993,1.407137393951416,0.5788619518280029
1790333701928112000,12.388112060546876,1.1016511917114258,2.816455364227295,1.0969878435134888
1790333701944563700,12.404563720703125,-2.3989198207855225,1.3006420135498047,-0.1126251220703125
1790333701961017600,12.421017578125,2.8547821044921875,0.7185354232788086,-1.4826054573059082
1790333701977502700,12.437502685546875,1.002368450164795,0.21352767944335938,0.3110044002532959
1790333701993954000,12.4539541015625,-3.1564416885375977,-1.5335783958435059,1.8634942770004272
1790333702010408000,12.470407958984374,4.457104206085205,-1.5621867179870605,-1.4973359107971191
1790333702026859000,12.48685888671875,0.10442876815795898,-0.9761667251586914,0.7396975755691528
1790333702043314700,12.503314697265624,0.04596853256225586,-3.22975492477417,-1.1296017169952393
1790333702059799600,12.519799560546875,1.1119751930236816,-1.4123592376708984,0.017762184143066406
1790333702076250400,12.53625048828125,-0.4666304588317871,1.66717529296875,0.5155971646308899
1790333702092739600,12.552739501953125,-2.8088321685791016,-0.9615039825439453,1.7414052486419678
1790333702109221400,12.569221435546876,1.2818522453308105,-0.9505844116210938,-0.2800997495651245
1790333702125668600,12.585668701171874,1.0095014572143555,-1.3560905456542969,0.7133204340934753
1790333702142114800,12.60211474609375,-2.4469666481018066,-1.8584775924682617,0.8621695041656494
1790333702158590500,12.618590576171876,3.053297996520996,-1.0811166763305664,1.1150076389312744
1790333702175036000,12.635035888671876,-0.48935937881469727,-1.311100959777832,-0.5188295245170593
1790333702191481000,12.651481201171874,5.833513259887695,6.735588550567627,-3.9499640464782715
1790333702207927600,12.667927490234375,1.434190273284912,-5.044918060302734,1.08390212059021
1790333702224399000,12.684399169921875,0.23549509048461914,-0.4092435836791992,-0.13174158334732056
1790333702240870100,12.7008701171875,-2.142153263092041,-0.35680198669433594,0.4491521716117859
1790333702257346300,12.71734619140625,0.3942604064941406,1.4320406913757324,-0.5413461923599243
1790333702273843200,12.73384326171875,0.5491824150085449,0.25612354278564453,0.15140315890312195
1790333702290319000,12.750319091796875,-1.7533924579620361,-0.1781167984008789,-0.5485398769378662
1790333702306793500,12.76679345703125,2.8206100463867188,0.5991449356079102,0.1909405142068863
1790333702323298000,12.783298095703126,-0.17258739471435547,-0.4281606674194336,-0.5820096135139465
1790333702339773700,12.799773681640625,-0.5770483016967773,-1.467254638671875,-0.8885095715522766
1790333702356269600,12.81626953125,0.4898195266723633,-0.19766902923583984,0.4736550450325012
1790333702372719600,12.8327197265625,0.2632884979248047,-0.7574033737182617,0.7259688973426819
1790333702389163300,12.849163330078126,-2.1163992881774902,-0.5330171585083008,-0.6920467615127563
1790333702405632500,12.865632568359375,3.939342975616455,0.20019245147705078,0.8391866683959961
1790333702422076400,12.882076416015625,1.183577537536621,-1.5400915145874023,1.3217209577560425
1790333702438517200,12.898517333984374,-2.0958056449890137,-3.246103286743164,0.2261585295200348
1790333702454962000,12.9149619140625,5.35800838470459,-1.7627382278442383,1.0982788801193237
1790333702471441000,12.93144091796875,-1.9185898303985596,-0.4027581214904785,-0.4197361469268799
1790333702487889400,12.947889404296875,-5.858698844909668,-0.5393548011779785,-2.042229652404785
1790333702504337700,12.964337646484376,8.248394012451172,3.0146751403808594,0.10949492454528809
1790333702520786000,12.980785888671875,0.46741724014282227,1.6176419258117676,0.578679084777832
1790333702537241900,12.997241943359375,-12.933187484741211,1.0283598899841309,2.019061803817749
1790333702553691600,13.013691650390625,26.49490737915039,2.797205924987793,2.247771739959717
1790333702570142200,13.03014208984375,-22.032085418701172,-0.5444746017456055,-8.42979621887207
1790333702586592800,13.0465927734375,-12.04377555847168,-1.1997418403625488,1.1905937194824219
1790333702603069700,13.063069580078125,1.2465906143188477,-0.24407529830932617,1.7801655530929565
1790333702619516400,13.079516357421875,-0.9816346168518066,-0.17361927032470703,-0.18141353130340576
1790333702635963100,13.095963134765626,0.3014945983886719,-2.3008594512939453,-1.4217160940170288
1790333702652451800,13.112451904296876,0.5527191162109375,-0.8177099227905273,-1.122617483139038
1790333702668907300,13.1289072265625,-2.831315517425537,-0.19036579132080078,0.1228872537612915
1790333702685353700,13.145353759765625,1.263282299041748,-2.1538772583007812,-0.6582530736923218
1790333702701807900,13.161807861328125,0.4385871887207031,1.977320671081543,1.7545807361602783
1790333702718279700,13.17827978515625,-0.4438776969909668,0.7094688415527344,0.08847594261169434
1790333702734768400,13.194768310546875,0.17173051834106445,-0.8149490356445312,-0.06312048435211182
1790333702751220700,13.211220703125,0.7828898429870605,1.4498586654663086,0.2800559997558594
1790333702767691000,13.22769091796875,1.185051441192627,1.1502299308776855,-0.34682464599609375
1790333702784171000,13.2441708984375,-0.5185947418212891,-0.2972750663757324,0.9375913739204407
1790333702800644900,13.260644775390626,0.5202298164367676,-0.3756551742553711,-0.06691551208496094
1790333702817120300,13.277120361328125,-2.1569957733154297,0.6947164535522461,0.035801053047180176
1790333702833569300,13.2935693359375,0.8850469589233398,-0.8979549407958984,-0.4889960289001465
1790333702850044400,13.31004443359375,-0.7216506004333496,-1.5050878524780273,0.033484816551208496
1790333702866520800,13.326520751953124,0.45044755935668945,-0.49457693099975586,-0.5032056570053101
1790333702883001000,13.3430009765625,-2.1451287269592285,-0.04795265197753906,0.4860568046569824
1790333702898429200,13.35842919921875,0.22608661651611328,-0.9062652587890625,0.0718686580657959
1790333702914905300,13.3749052734375,0.8534512519836426,1.5584816932678223,0.4623126983642578
1790333702931376400,13.39137646484375,-1.3156309127807617,0.5742387771606445,0.012015581130981445
1790333702947853800,13.407853759765626,0.9742202758789062,-0.7068138122558594,0.34703314304351807
1790333702964331000,13.4243310546875,0.06095695495605469,2.2564210891723633,0.7394812703132629
1790333702980776000,13.44077587890625,0.5060930252075195,0.6263179779052734,-0.2093336582183838
1790333702997226500,13.4572265625,0.21061038970947266,-2.0518417358398438,0.6378592252731323
1790333703013695700,13.47369580078125,0.08732175827026367,0.12366151809692383,-0.5393377542495728
1790333703030155500,13.490155517578126,-3.577249526977539,0.7375292778015137,0.29305052757263184
1790333703046598000,13.506597900390625,0.9000730514526367,-1.7127375602722168,-0.9893093109130859
1790333703063020300,13.523020263671874,-0.481109619140625,0.3777809143066406,-0.01271510124206543
1790333703079490000,13.539489990234374,1.0610466003417969,-0.08331918716430664,-0.0585709810256958
1790333703095983600,13.555983642578125,-0.6117649078369141,-0.5774106979370117,0.5398365259170532
1790333703112424200,13.572424072265624,-0.02640819549560547,0.1313800811767578,0.6005895137786865
1790333703128863700,13.58886376953125,1.5195765495300293,1.335888385772705,0.2487410306930542
1790333703145364000,13.605364013671876,-0.8200654983520508,-0.03171730041503906,0.03656411170959473
1790333703161814000,13.62181396484375,0.2777543067932129,-0.5100531578063965,-0.42273473739624023
1790333703178186200,13.638186279296875,0.6651878356933594,2.3555283546447754,1.3464572429656982
1790333703194593500,13.654593505859374,1.046633243560791,0.4655594825744629,-0.08990705013275146
1790333703211058000,13.671057861328125,-1.4335289001464844,-1.281649112701416,0.6827634572982788
1790333703227511300,13.68751123046875,0.7007646560668945,-0.2048954963684082,-0.46780669689178467
1790333703243953000,13.703952880859376,-2.4126272201538086,0.7511906623840332,-0.04938614368438721
1790333703260393000,13.72039306640625,1.1132640838623047,-0.9760618209838867,-0.9027132987976074
1790333703276840700,13.7368408203125,-1.3879590034484863,-0.9231281280517578,0.052188873291015625
1790333703293311000,13.75331103515625,0.07102441787719727,-0.5331249237060547,-1.139089822769165
1790333703309764000,13.76976416015625,-3.044869899749756,0.30282163619995117,0.29886579513549805
1790333703326206500,13.78620654296875,0.2920513153076172,-1.3838081359863281,-0.8386436700820923
1790333703342647600,13.8026474609375,-0.021871089935302734,0.05248069763183594,0.24048328399658203
1790333703359123700,13.819123779296875,0.06618642807006836,0.20357370376586914,0.16047990322113037
1790333703375569700,13.835569580078126,-0.737396240234375,-1.1440801620483398,0.07211101055145264
1790333703392054300,13.85205419921875,0.47533178329467773,0.18511724472045898,0.31498706340789795
1790333703408494800,13.868494873046876,2.4755377769470215,0.7599544525146484,0.6668422222137451
1790333703424934700,13.8849345703125,-0.35938596725463867,1.026932716369629,0.5313879251480103
1790333703441399600,13.901399658203125,0.0009555816650390625,-0.15871095657348633,-0.03789865970611572
1790333703457868300,13.917868408203125,1.3509960174560547,1.213442325592041,0.4552037715911865
1790333703474309600,13.9343095703125,1.0582642555236816,1.29722261428833,0.6780757904052734
1790333703490783700,13.95078369140625,-1.0531244277954102,-0.9347872734069824,0.9579121470451355
1790333703507227600,13.9672275390625,0.9617419242858887,-0.49495935440063477,-0.6052240133285522
1790333703523676200,13.98367626953125,-2.9768381118774414,-0.29805421829223633,-0.3068666458129883
1790333703540117000,14.000116943359375,1.2886161804199219,-2.1859421730041504,-1.390360951423645
1790333703556571000,14.01657080078125,-0.37100648880004883,1.0485825538635254,0.39478158950805664
1790333703573042700,14.033042724609375,1.2754945755004883,0.30641794204711914,-0.2497999668121338
1790333703589536800,14.049536865234375,-0.4540748596191406,-0.14913082122802734,0.4280102252960205
1790333703605980000,14.06597998046875,0.47680044174194336,1.252579689025879,0.3248528242111206
1790333703622420500,14.08242041015625,1.2756719589233398,1.2770805358886719,-0.5311527252197266
1790333703638929400,14.098929443359374,-0.9979605674743652,-1.013166904449463,1.1467161178588867
1790333703655380200,14.115380126953125,0.9152956008911133,-0.7364397048950195,0.1942758560180664
1790333703671850000,14.13185009765625,-2.829540252685547,0.5862078666687012,-0.09241330623626709
1790333703688311000,14.14831103515625,0.2532787322998047,-2.073856830596924,-1.1691515445709229
1790333703704784600,14.16478466796875,-0.44696807861328125,-0.15118789672851562,-1.003961443901062
1790333703721240300,14.181240234375,1.1794567108154297,0.3059873580932617,-0.4172266721725464
1790333703737717500,14.197717529296876,-1.275552749633789,-0.6217503547668457,0.8209431767463684
1790333703754187300,14.214187255859375,1.7212557792663574,0.3049283027648926,0.4610440731048584
1790333703770654000,14.230654052734375,1.6535630226135254,1.8044219017028809,0.7032176852226257
1790333703787103700,14.247103759765626,-1.2696633338928223,-0.8143424987792969,-0.5203278064727783
1790333703803585300,14.263585205078124,0.4528212547302246,-0.48160314559936523,-0.3180750608444214
1790333703820025300,14.280025390625,-0.02233743667602539,1.373098373413086,0.4960041046142578
1790333703836465400,14.29646533203125,-0.07757234573364258,0.023177146911621094,0.43376660346984863
1790333703852937000,14.31293701171875,0.5549092292785645,-1.3113694190979004,-0.1864992380142212
1790333703869409000,14.329408935546875,0.44669103622436523,0.04745006561279297,-0.4561777114868164
1790333703885918500,14.34591845703125,-1.9087066650390625,-0.338162899017334,0.18118250370025635
1790333703902361600,14.362361572265625,1.2521843910217285,-1.4793076515197754,-0.2989673614501953
1790333703918830000,14.378830078125,0.7737312316894531,1.9365367889404297,-0.02400338649749756
1790333703935304400,14.395304443359375,-1.3143515586853027,0.7904505729675293,0.4397474527359009
1790333703951721500,14.411721435546875,0.545224666595459,-0.6164555549621582,0.2072465419769287
1790333703968191200,14.428191162109375,-0.7327651977539062,2.0490856170654297,0.5443382859230042
1790333703984641500,14.4446416015625,0.14068174362182617,-0.2815265655517578,0.12684881687164307
1790333704001137000,14.461136962890626,0.5091638565063477,-2.1241936683654785,-0.6855591535568237
1790333704017593300,14.47759326171875,1.3981218338012695,-0.14578962326049805,-0.2715902328491211
1790333704034060800,14.494060791015626,-0.9079127311706543,0.36325931549072266,0.9060314297676086
1790333704050411000,14.510410888671874,1.51613187789917,-1.0777029991149902,0.3573474884033203
1790333704066825000,14.526824951171875,1.2210350036621094,1.8533010482788086,-0.5419703722000122
1790333704083325400,14.543325439453126,-1.5460271835327148,0.15806961059570312,1.0394480228424072
1790333704099805700,14.5598056640625,0.6316514015197754,-0.2722306251525879,0.16718828678131104
1790333704116259800,14.576259765625,-2.4756927490234375,0.7792158126831055,0.0843353271484375
1790333704132732700,14.592732666015625,0.5719089508056641,-1.4929280281066895,-0.4563406705856323
1790333704149207800,14.609207763671876,-0.4541468620300293,-0.7473645210266113,-0.20247840881347656
1790333704165675300,14.62567529296875,1.2262325286865234,0.21446704864501953,-0.09298336505889893
1790333704182139100,14.64213916015625,-0.4331941604614258,0.058818817138671875,0.8299738764762878
1790333704198607600,14.658607666015625,0.8078737258911133,0.28211259841918945,0.1603395938873291
1790333704215061800,14.675061767578125,1.3954005241394043,1.9439277648925781,-0.7029929161071777
1790333704231529700,14.69152978515625,-1.0218453407287598,-1.1413559913635254,0.450650691986084
1790333704248024600,14.708024658203126,0.2699623107910156,-1.032198429107666,-0.8518919944763184
1790333704264487700,14.72448779296875,-2.6664652824401855,0.47904348373413086,-0.24446892738342285
1790333704280930300,14.740930419921876,1.0238242149353027,-2.3022193908691406,-1.0562880039215088
1790333704297373700,14.757373779296875,-0.49128150939941406,1.0371408462524414,1.0588383674621582
1790333704313825500,14.773825439453125,-0.4164438247680664,1.3355040550231934,0.2161872386932373
1790333704330322400,14.790322509765625,0.00997781753540039,-0.5545773506164551,0.24741637706756592
1790333704346814200,14.806814208984376,-0.7668752670288086,1.5691561698913574,0.09372329711914062
1790333704363264000,14.823263916015625,1.251821517944336,-0.13639020919799805,-0.1834716796875
1790333704379764700,14.8397646484375,0.06360435485839844,-1.1281185150146484,-0.19735181331634521
1790333704396236500,14.856236572265624,0.6104726791381836,1.7520942687988281,0.6044597029685974
1790333704412702500,14.872702392578125,4.739431381225586,5.964060306549072,3.44907808303833
1790333704429141000,14.88914111328125,-45.54939651489258,-10.333227157592773,0.004026174545288086
1790333704445577000,14.905576904296876,7.149552822113037,-8.347637176513672,-1.3512754440307617
1790333704462011400,14.922011474609375,-0.6288442611694336,0.1905350685119629,-1.015047311782837
1790333704478447600,14.938447509765625,3.787205219268799,-0.11850261688232422,-1.1397676467895508
1790333704494882300,14.95488232421875,-2.631350517272949,-0.5550422668457031,-0.6516878604888916
1790333704511323000,14.971322998046874,-4.418914794921875,-1.026543140411377,-0.4811398983001709
1790333704527756500,14.987756591796876,2.9528098106384277,-1.2551355361938477,-5.097616195678711
1790333704544192300,15.004192138671876,1.7152843475341797,-0.23456287384033203,1.2716987133026123
1790333704560629000,15.02062890625,24.04791831970215,1.0717144012451172,1.9121206998825073
1790333704577065700,15.037065673828126,-19.83038330078125,0.6921100616455078,8.784099578857422
1790333704593502700,15.053502685546874,0.8001194000244141,-3.91501522064209,-6.441389560699463
1790333704609942500,15.069942626953125,4.236071586608887,6.004953861236572,9.905959129333496
1790333704626412500,15.08641259765625,12.479548454284668,5.97296142578125,5.905934810638428
1790333704642852900,15.102852783203126,-0.26653623580932617,-7.735926151275635,-3.9460604190826416
1790333704659290000,15.1192900390625,0.049442291259765625,1.2791228294372559,0.7011089324951172
1790333704675729400,15.1357294921875,0.48636722564697266,0.9240484237670898,-0.19074058532714844
1790333704692168200,15.152168212890626,-1.1902570724487305,-0.17412471771240234,0.621356725692749
1790333704708606500,15.1686064453125,-0.7373027801513672,-1.0585980415344238,-0.9819066524505615
1790333704725048300,15.18504833984375,2.132296085357666,0.9685463905334473,0.6282904148101807
1790333704741516300,15.201516357421875,-9.999801635742188,-3.0574951171875,-5.275575160980225
1790333704757964800,15.21796484375,-4.83702278137207,-1.4454498291015625,1.1274287700653076
1790333704774400000,15.23439990234375,14.401138305664062,-1.960963249206543,2.3392109870910645
1790333704790833000,15.2508330078125,4.116783618927002,-1.658719539642334,0.5528292655944824
1790333704807265500,15.267265625,-2.885942220687866,0.7290277481079102,0.45025110244750977
1790333704823694800,15.28369482421875,-5.290524959564209,-2.459775447845459,-3.2760744094848633
1790333704840128000,15.3001279296875,12.83469009399414,1.3445968627929688,14.306142807006836
1790333704856562400,15.3165625,-7.4455060958862305,3.105175018310547,-0.3902628421783447
1790333704873022000,15.33302197265625,0.5652632713317871,0.15734004974365234,-0.9810714721679688
1790333704889454000,15.3494541015625,-0.03903532028198242,0.4828052520751953,-0.3414452075958252
1790333704905864400,15.365864501953125,-0.529170036315918,4.331144332885742,2.6624231338500977
1790333704922298400,15.38229833984375,-1.7044754028320312,-0.44123125076293945,1.6141033172607422
1790333704938731800,15.398731689453125,2.072587013244629,-0.16976118087768555,-1.0117532014846802
1790333704955168000,15.41516796875,-0.6013889312744141,-0.44696855545043945,0.9243825674057007
1790333704971598300,15.431598388671874,0.8376021385192871,-1.1469483375549316,-0.5936638116836548
1790333704988026600,15.448026611328125,-0.37874269485473633,-0.2779092788696289,0.15308308601379395
1790333705004484000,15.464484130859375,0.49797725677490234,0.4961705207824707,0.34238946437835693
1790333705020946700,15.48094677734375,-0.3610239028930664,-0.1412029266357422,0.7112170457839966
1790333705037376800,15.497376708984374,-0.5529217720031738,0.18248558044433594,-0.48997926712036133
1790333705053805300,15.513805419921875,1.517204761505127,0.1250767707824707,-0.23835039138793945
1790333705070238500,15.530238525390626,-3.3178186416625977,0.625584602355957,-1.1602118015289307
1790333705086615300,15.546615234375,-2.9079623222351074,4.738980293273926,-1.6097941398620605
1790333705102926800,15.5629267578125,6.3006205558776855,-1.600308895111084,2.761617422103882
1790333705119426600,15.579426513671875,-4.008427143096924,-2.7271065711975098,-0.16543185710906982
1790333705135857200,15.595857177734375,0.2998828887939453,-2.2989773750305176,0.6311482191085815
1790333705152288000,15.6122880859375,-1.5257844924926758,0.2372732162475586,0.26402103900909424
1790333705168719400,15.62871923828125,7.692255020141602,-0.45038366317749023,0.38024353981018066
1790333705185095000,15.645094970703125,2.668057441711426,0.2522745132446289,0.8756210803985596
1790333705201557800,15.661557861328125,0.4279599189758301,-0.0022907257080078125,-0.0397571325302124
1790333705218021000,15.678021240234376,0.030164241790771484,-1.234675407409668,-1.0853803157806396
1790333705234504700,15.694504638671875,0.06543111801147461,0.1549224853515625,0.4255216121673584
1790333705250971100,15.71097119140625,-1.3165459632873535,0.07573938369750977,-0.05702555179595947
1790333705267408100,15.727408203125,-2.6274218559265137,-0.8085770606994629,-0.42154908180236816
1790333705283872300,15.743872314453125,0.7074370384216309,1.3007125854492188,0.25052762031555176
1790333705300340500,15.760340576171876,-0.23860740661621094,-0.09738874435424805,0.29389214515686035
1790333705316829000,15.776828857421876,-0.31690359115600586,-0.7738018035888672,-0.7986170053482056
1790333705333274400,15.7932744140625,3.046942710876465,0.24121999740600586,0.6520337462425232
1790333705349737200,15.8097373046875,-1.0646171569824219,-0.45360565185546875,-1.135696530342102
1790333705366229500,15.8262294921875,-0.726813793182373,-1.0273041725158691,0.17345929145812988
1790333705382665000,15.8426650390625,1.1374034881591797,-0.2052440643310547,-0.47559118270874023
1790333705399099600,15.859099609375,-2.9017128944396973,0.10200881958007812,-0.31638646125793457
1790333705415534000,15.8755341796875,3.4375710487365723,0.9304308891296387,2.288050413131714
1790333705431997000,15.891996826171875,-0.27227783203125,0.6681017875671387,-0.4228869676589966
1790333705448431000,15.90843115234375,-0.251101016998291,0.5351295471191406,-0.497653603553772
1790333705464866000,15.924865966796874,0.9896111488342285,-0.4896702766418457,0.6813645362854004
1790333705481300700,15.94130078125,-1.9840631484985352,-0.502875804901123,-0.23503315448760986
1790333705497741300,15.9577412109375,-2.798611640930176,-0.7038383483886719,0.12415862083435059
1790333705514173700,15.974173583984374,0.4552474021911621,-3.1140851974487305,1.936390995979309
1790333705530605800,15.990605712890625,0.46918725967407227,-1.5722970962524414,1.5654759407043457
1790333705547039500,16.00703955078125,0.6869921684265137,0.1521897315979004,0.2634192705154419
1790333705563507000,16.0235068359375,-1.3231258392333984,-0.3699321746826172,-0.5302250385284424
1790333705579934000,16.039933837890626,0.36310720443725586,-0.9809732437133789,0.9827597141265869
1790333705596362200,16.0563623046875,1.6979808807373047,2.6295013427734375,0.8849383592605591
1790333705612821500,16.072821533203125,1.691849708557129,-1.772566795349121,1.7110155820846558
1790333705629251000,16.0892509765625,-3.8952059745788574,0.0068454742431640625,-0.9692901372909546
1790333705645677800,16.105677734375,2.861143112182617,-0.8472385406494141,1.0688320398330688
1790333705662105600,16.122105712890626,0.7540793418884277,1.810072898864746,-1.2000558376312256
1790333705678535200,16.13853515625,1.6711654663085938,2.3944053649902344,-3.838993787765503
1790333705694966000,16.154966064453124,1.9970159530639648,1.62870454788208,-2.957815170288086
1790333705711401500,16.1714013671875,2.2898569107055664,1.2920269966125488,1.262529969215393
1790333705727837400,16.18783740234375,-0.9392328262329102,-0.1461658477783203,-0.7898536920547485
1790333705744275200,16.204275146484374,0.26803016662597656,2.0527334213256836,-0.5481410026550293
1790333705760707800,16.220707763671875,1.2804927825927734,1.417844295501709,-0.1571207046508789
1790333705777142500,16.237142578125,-1.6296844482421875,2.0896530151367188,0.20349502563476562
1790333705793575700,16.25357568359375,3.852843761444092,1.1350035667419434,-1.9617582559585571
1790333705810041900,16.270041748046875,2.0112733840942383,1.1669249534606934,-1.3333815336227417
1790333705826478300,16.286478271484373,2.7020440101623535,0.9645261764526367,-2.3511271476745605
1790333705842913500,16.30291357421875,2.684959888458252,-0.24402236938476562,0.379993200302124
1790333705859378000,16.3193779296875,-1.3002028465270996,-1.0515809059143066,1.5716246366500854
1790333705875809800,16.335809814453125,-4.565315246582031,-8.636866569519043,0.9059264063835144
1790333705892243500,16.352243408203126,-5.567921161651611,-2.911378860473633,2.9460525512695312
1790333705908676900,16.3686767578125,0.2428140640258789,-0.8983879089355469,0.017517924308776855
1790333705924992800,16.38499267578125,-0.5325336456298828,1.0616445541381836,1.0123813152313232
1790333705941432300,16.401432373046877,-2.9945898056030273,0.10504961013793945,-0.2781243324279785
1790333705957867000,16.417866943359375,0.6140918731689453,0.35469722747802734,0.884962797164917
1790333705974297600,16.434297607421875,3.853489398956299,0.0952596664428711,0.5764582753181458
1790333705990736100,16.450736083984374,-4.4656805992126465,-2.5646119117736816,-1.0108569860458374
1790333706007167200,16.467167236328127,-3.3604516983032227,-1.094703197479248,-0.32762205600738525
1790333706023598300,16.483598388671876,-3.270880937576294,-0.27568626403808594,0.5238926410675049
1790333706040060000,16.500059814453124,1.4296808242797852,0.7947831153869629,-0.44293785095214844
1790333706056518100,16.51651806640625,0.08079957962036133,-0.23116493225097656,0.15950727462768555
1790333706072917800,16.532917724609376,-1.868025779724121,-0.6425213813781738,-0.670905590057373
1790333706089346600,16.5493466796875,2.180678367614746,1.032421588897705,0.6709884405136108
1790333706105813000,16.56581298828125,-3.0565340518951416,-0.1745443344116211,-1.2238341569900513
1790333706122250800,16.582250732421876,2.212705135345459,1.7742018699645996,1.1323999166488647
1790333706138685400,16.598685546875,1.6880755424499512,-0.4118213653564453,1.5315767526626587
1790333706155121700,16.61512158203125,-0.38935232162475586,0.12879705429077148,0.05583798885345459
1790333706171558000,16.631557861328126,0.34963178634643555,-0.7339234352111816,-0.43415093421936035
1790333706187993000,16.6479931640625,1.7142972946166992,0.3249654769897461,0.03160703182220459
1790333706204403500,16.664403564453124,-1.4041123390197754,-0.6920795440673828,-0.8958970308303833
1790333706220833000,16.6808330078125,0.12727022171020508,-0.04054832458496094,-0.09478306770324707
1790333706237245000,16.697244873046873,-1.3049860000610352,-0.16162109375,0.4086161255836487
1790333706253712100,16.713712158203126,-3.639629602432251,0.0015401840209960938,-0.4115089178085327
1790333706270141000,16.730140869140627,0.8362455368041992,1.113173007965088,0.08310198783874512
1790333706286605300,16.746605224609375,0.9627089500427246,-0.008277416229248047,0.4785959720611572
1790333706303062000,16.76306201171875,0.011500358581542969,-0.5454554557800293,-0.13266229629516602
1790333706319500800,16.779500732421877,3.8708081245422363,0.12035655975341797,0.567724883556366
1790333706335931600,16.795931640625,-0.04664897918701172,-1.0715112686157227,-0.41858839988708496
1790333706352454100,16.8124541015625,-0.24468564987182617,0.1585702896118164,-0.18648695945739746
1790333706368884000,16.828884033203124,1.651979923248291,-0.7670197486877441,0.5445829033851624
1790333706385316000,16.845316162109373,2.247098922729492,-0.5874080657958984,1.1765130758285522
1790333706401746400,16.861746337890626,2.6940603256225586,-0.09969520568847656,-1.0155813694000244
1790333706418178600,16.878178466796875,0.532097339630127,-0.8523468971252441,-0.3250488042831421
1790333706434610700,16.894610595703124,-0.4273061752319336,-3.848053455352783,0.22500550746917725
1790333706451041800,16.911041748046873,1.4287934303283691,-3.2354817390441895,1.1592869758605957
1790333706467474200,16.92747412109375,2.2211475372314453,0.8998942375183105,-0.6874464750289917
1790333706483911400,16.943911376953125,-2.9398040771484375,-2.1127824783325195,-0.08625173568725586
1790333706500343300,16.96034326171875,-4.007272720336914,-2.362183094024658,1.0611801147460938
1790333706516776000,16.97677587890625,-1.2422962188720703,-0.8308582305908203,2.2218899726867676
1790333706533107000,16.99310693359375,1.6156787872314453,-0.8755698204040527,-1.13008451461792
1790333706549532000,17.009531982421876,2.9045543670654297,-0.03844785690307617,-0.7886459827423096
1790333706565963000,17.025962890625,-0.8385434150695801,0.9558520317077637,-0.032015323638916016
1790333706582392300,17.042392333984374,-2.1065940856933594,1.8645076751708984,-0.4315387010574341
1790333706598852900,17.058852783203125,-1.377945899963379,3.3616998195648193,0.7191458940505981
1790333706615286500,17.07528662109375,-2.5558838844299316,5.095655918121338,-3.168905735015869
1790333706631718400,17.091718505859376,-0.36425065994262695,4.8313469886779785,0.4897916316986084
1790333706648150800,17.10815087890625,6.055578231811523,2.565577745437622,2.1967625617980957
1790333706664582000,17.124581787109374,7.5931396484375,0.6286354064941406,1.6852929592132568
1790333706681013200,17.14101318359375,3.2404308319091797,0.3012208938598633,1.6434993743896484
1790333706697444600,17.157444580078124,-0.41013240814208984,0.5627422332763672,0.09068536758422852
1790333706713874400,17.17387451171875,-2.70902681350708,0.9485001564025879,-2.2511234283447266
1790333706730311000,17.190310791015627,-3.899052143096924,3.1519615650177,0.7660051584243774
1790333706746740500,17.206740478515623,-3.248605966567993,2.716994524002075,1.3448210954666138
1790333706763172400,17.22317236328125,0.38590288162231445,2.5408077239990234,0.7281750440597534
1790333706779605500,17.23960546875,1.6304059028625488,2.676875114440918,0.6988203525543213
1790333706796036000,17.2560361328125,0.595430850982666,1.8354902267456055,0.3326437473297119
1790333706812468700,17.27246875,3.0530734062194824,-1.8691205978393555,-1.1915678977966309
1790333706828903200,17.288903076171874,1.5919809341430664,-4.661744594573975,-0.11828899383544922
1790333706845367800,17.305367919921874,-2.8866453170776367,-3.117504119873047,2.8413918018341064
1790333706861804800,17.3218046875,6.859412670135498,-2.2591142654418945,1.2007399797439575
1790333706878241000,17.338240966796874,1.672917366027832,-3.088070869445801,-1.160099983215332
1790333706894677800,17.354677734375,-0.7344002723693848,0.1613788604736328,-0.1125028133392334
1790333706911113700,17.37111376953125,-4.847330093383789,3.4039082527160645,-0.9612116813659668
1790333706927455500,17.38745556640625,-0.8235340118408203,-0.09568500518798828,3.2259812355041504
1790333706943857700,17.403857666015625,5.969557285308838,-1.813314437866211,-1.3765878677368164
1790333706960294400,17.42029443359375,1.3736915588378906,-1.5846362113952637,0.2865716218948364
1790333706975753700,17.435753662109374,-1.1678194999694824,-2.5036611557006836,0.6373783349990845
1790333706992193000,17.452193115234376,-6.804415702819824,2.181088924407959,1.5845392942428589
1790333707008631000,17.468631103515627,2.5144925117492676,1.0520739555358887,-0.5842978954315186
1790333707025067500,17.485067626953125,-1.5544929504394531,0.49501991271972656,-0.3827080726623535
1790333707041503700,17.501503662109375,1.8460826873779297,-1.0602684020996094,0.47053253650665283
1790333707057942000,17.51794189453125,4.54254150390625,-3.6502861976623535,-0.7906306982040405
1790333707074380500,17.534380615234376,6.935433864593506,-1.4825940132141113,0.2816959619522095
1790333707090855200,17.550855224609375,4.41449499130249,1.155466079711914,-0.7019754648208618
1790333707107296300,17.567296142578126,-5.513280868530273,2.04213285446167,2.73066782951355
1790333707123733500,17.5837333984375,-1.640200138092041,-0.745267391204834,0.7951756715774536
1790333707140171300,17.600171142578127,0.43998050689697266,0.10689687728881836,0.5406985282897949
1790333707156608000,17.61660791015625,1.1990947723388672,0.14818811416625977,1.043670892715454
1790333707173052700,17.633052734375,-0.4621438980102539,-0.4387640953063965,-0.14642226696014404
1790333707189488400,17.64948828125,-0.47301769256591797,-1.3748631477355957,1.7500520944595337
1790333707205817300,17.6658173828125,-0.4634718894958496,-3.048767566680908,3.697972297668457
1790333707222207500,17.68220751953125,4.66436767578125,-5.332238674163818,2.2529332637786865
1790333707238643500,17.6986435546875,8.515348434448242,-1.2122368812561035,0.6878618597984314
1790333707255081700,17.715081787109376,2.0112009048461914,1.1511611938476562,-1.3117973804473877
1790333707271524000,17.731524169921876,-6.748072624206543,4.502503395080566,2.777893543243408
1790333707287964200,17.747964111328123,1.946765422821045,1.6765780448913574,0.5743021965026855
1790333707304405000,17.764405029296874,2.4884109497070312,-0.9550437927246094,0.9148545265197754
1790333707320843500,17.780843505859377,-0.9858956336975098,-0.17530059814453125,-0.028542757034301758
1790333707337311000,17.79731103515625,-1.3167543411254883,0.3237037658691406,-1.2515366077423096
1790333707353750000,17.81375,0.09624624252319336,1.527897834777832,-0.44148337841033936
1790333707370186500,17.8301865234375,-1.8476877212524414,0.3869147300720215,0.6156989336013794
1790333707386624300,17.846624267578125,-2.5624947547912598,0.9307436943054199,-0.15270984172821045
1790333707403061800,17.863061767578124,1.6417784690856934,-0.8997406959533691,-0.11904525756835938
1790333707419499500,17.87949951171875,-1.7072644233703613,-0.19661760330200195,0.7214570045471191
1790333707435937000,17.89593701171875,-0.7525997161865234,2.239555835723877,-1.1805822849273682
1790333707452376600,17.91237646484375,1.7246732711791992,1.7374272346496582,-0.6765820980072021
1790333707468823300,17.9288232421875,-0.6392416954040527,-0.7056198120117188,-0.8046525716781616
1790333707485264600,17.9452646484375,0.9731383323669434,0.09403133392333984,0.25588929653167725
1790333707501739500,17.961739501953126,1.0921669006347656,0.442502498626709,0.28670454025268555
1790333707518180600,17.9781806640625,-2.041898012161255,1.2837214469909668,0.6263630986213684
1790333707534619000,17.994618896484376,1.067276954650879,-0.6042699813842773,0.4497947692871094
1790333707551059000,18.011058837890626,-3.5175392627716064,-1.0089807510375977,-0.0909736156463623
1790333707567497000,18.0274970703125,0.8088335990905762,-1.0142531394958496,-0.7269060611724854
1790333707583996000,18.043995849609374,0.08638668060302734,-1.9851346015930176,0.622460663318634
1790333707600433000,18.060432861328124,-2.2525854110717773,-1.8105144500732422,2.4686455726623535
1790333707616869000,18.076869140625,0.8395347595214844,0.5367417335510254,-0.1325763463973999
1790333707633309700,18.093309814453125,0.7942366600036621,-1.1608095169067383,-1.091812014579773
1790333707649749000,18.1097490234375,-9.745903015136719,3.5624032020568848,-4.035837173461914
1790333707666186200,18.126186279296874,0.7352442741394043,-0.6342825889587402,-2.7775259017944336
1790333707682624000,18.1426240234375,-2.984135150909424,0.935631275177002,-2.339095115661621
1790333707699061500,18.1590615234375,-1.4522371292114258,0.9806756973266602,0.031012773513793945
1790333707715502000,18.175502197265626,1.5575847625732422,-0.3183917999267578,-1.0569754838943481
1790333707731935000,18.19193505859375,1.172628402709961,0.6094675064086914,-0.11099517345428467
1790333707748400600,18.208400634765624,-1.098412036895752,0.570868968963623,0.9282310009002686
1790333707764864800,18.22486474609375,2.8444247245788574,0.08112096786499023,0.9901800751686096
1790333707781328100,18.241328125,0.3757658004760742,1.1211247444152832,0.09128010272979736
1790333707797778200,18.257778076171874,-1.5105576515197754,-0.8960175514221191,-1.550952672958374
1790333707814216200,18.27421630859375,2.3430800437927246,0.827847957611084,-2.9980831146240234
1790333707830684400,18.290684326171874,-3.9276540279388428,1.3417701721191406,0.8330390453338623
1790333707847125800,18.307125732421873,2.8177475929260254,-1.2534351348876953,0.8619080185890198
1790333707863564000,18.32356396484375,-0.42088747024536133,-2.0897388458251953,3.0301127433776855
1790333707880006000,18.340005859375,-3.3830602169036865,-0.2942314147949219,1.1315011978149414
1790333707896480500,18.35648046875,-3.150697708129883,-0.31685304641723633,0.9742227792739868
1790333707912922400,18.37292236328125,0.8295607566833496,-0.44720935821533203,0.34401875734329224
1790333707929363500,18.389363525390625,-1.3234972953796387,-0.29958629608154297,0.13361060619354248
1790333707945818600,18.405818603515623,-0.02885723114013672,-0.8005166053771973,0.7500808238983154
1790333707962319400,18.4223193359375,-0.058576107025146484,-0.5338373184204102,-0.644136905670166
1790333707978787800,18.438787841796874,0.8885378837585449,4.141172885894775,0.570625364780426
1790333707995225600,18.4552255859375,2.700770854949951,-0.648869514465332,-1.202755331993103
1790333708011665200,18.4716650390625,4.313176155090332,0.6495413780212402,-0.7694383859634399
1790333708028105200,18.488105224609374,-0.6241912841796875,0.4965944290161133,-0.4810398817062378
1790333708044544500,18.50454443359375,-0.7267866134643555,1.0652880668640137,-0.16757547855377197
1790333708060985000,18.520985107421875,-1.8061022758483887,2.05739688873291,1.1675314903259277
1790333708077421800,18.537421875,-5.4391279220581055,0.9008011817932129,-0.728400468826294
1790333708093846000,18.553845947265625,8.27020263671875,1.1597785949707031,1.2851914167404175
1790333708110287600,18.57028759765625,-2.866474151611328,2.7762796878814697,1.0364350080490112
1790333708126729500,18.5867294921875,0.09790706634521484,1.4162607192993164,1.293326735496521
1790333708143167200,18.603167236328126,1.9640564918518066,-4.371181964874268,-1.7322574853897095
1790333708159581000,18.619580810546875,-1.6473522186279297,-3.93695068359375,-0.1744765043258667
1790333708176018700,18.636018798828125,3.9474215507507324,-4.158849239349365,0.4953855276107788
1790333708192456000,18.6524560546875,5.279114723205566,-0.8614535331726074,1.7132381200790405
1790333708208898000,18.66889794921875,-2.35306453704834,0.6261663436889648,0.6463254690170288
1790333708225335000,18.6853349609375,0.33069896697998047,0.08096027374267578,0.9091571569442749
1790333708241771800,18.701771728515624,-0.1679391860961914,-0.8378024101257324,0.7557238936424255
1790333708258207000,18.71820703125,2.33412504196167,-1.3193483352661133,2.764071226119995
1790333708274675500,18.734675537109375,-12.360483169555664,-0.6665420532226562,-16.66275405883789
1790333708291109000,18.751109130859376,-5.574454307556152,1.9975461959838867,-0.07309865951538086
1790333708307543300,18.767543212890626,2.348048210144043,1.4500598907470703,-0.7885276079177856
1790333708323997400,18.78399755859375,-1.7039728164672852,0.12276792526245117,0.8749815225601196
1790333708340431000,18.80043115234375,1.8622279167175293,-0.7433295249938965,-2.430480480194092
1790333708356862500,18.816862548828126,-0.9299321174621582,-0.7509355545043945,-0.2743738889694214
1790333708373297400,18.83329736328125,1.145639419555664,0.7050490379333496,1.2051721811294556
1790333708389729800,18.849729736328126,-1.728785514831543,0.836580753326416,0.5568978786468506
1790333708406161700,18.86616162109375,0.3487362861633301,-0.11409425735473633,-0.8850767612457275
1790333708422594600,18.882594482421876,1.3594069480895996,0.41541624069213867,0.2112044095993042
1790333708439029800,18.89902978515625,-0.45363903045654297,0.042357444763183594,0.025342106819152832
1790333708455471400,18.915471435546873,-2.057156562805176,6.105795860290527,2.758181095123291
1790333708471905500,18.931905517578127,6.798563003540039,1.0284948348999023,0.7963049411773682
1790333708488341000,18.948341064453125,2.812699794769287,-7.2099690437316895,-2.5119893550872803
1790333708504776700,18.964776611328126,6.54598331451416,-8.14819049835205,-4.784611225128174
1790333708521209900,18.9812099609375,2.1579504013061523,-3.31060791015625,0.9633588790893555
1790333708537640200,18.99764013671875,5.623727798461914,-3.881697177886963,5.454272270202637
1790333708554073000,19.014072998046874,-25.28771209716797,-3.613302230834961,-33.98276901245117
1790333708570535000,19.030534912109374,6.596154689788818,4.35050630569458,-5.177116394042969
1790333708586968000,19.046968017578124,2.603609085083008,-0.043123722076416016,-7.554705619812012
1790333708603397400,19.0633974609375,-17.492387771606445,0.46100664138793945,-4.739887237548828
1790333708619828200,19.079828125,-16.012393951416016,0.793525218963623,2.299487352371216
1790333708636261000,19.09626123046875,6.152012348175049,2.749216318130493,10.513208389282227
1790333708652696300,19.1126962890625,-3.258676052093506,-0.27257394790649414,1.4235373735427856
1790333708669130800,19.129130859375,4.863609790802002,2.6131038665771484,-3.348285675048828
1790333708685564000,19.14556396484375,-2.903048515319824,3.868762254714966,1.9429864883422852
1790333708702002200,19.162002197265625,-1.355635643005371,4.786802768707275,-1.0712279081344604
1790333708718435300,19.178435302734375,-9.256970405578613,4.297524452209473,0.8338347673416138
1790333708734869800,19.194869873046876,-7.717893123626709,2.3553965091705322,0.2971012592315674
1790333708751307000,19.21130712890625,1.052013874053955,3.856492042541504,2.5567312240600586
1790333708767744800,19.227744873046873,-0.5239033699035645,5.308292388916016,2.4653685092926025
1790333708784182300,19.244182373046876,4.1397294998168945,-1.6002540588378906,2.907088041305542
1790333708800619500,19.26061962890625,13.424959182739258,-8.741771697998047,-1.1768996715545654
1790333708817086200,19.277086181640627,-1.4119353294372559,1.3832063674926758,2.1871938705444336
1790333708833526800,19.29352685546875,-3.439755439758301,-14.278742790222168,-3.117424249649048
1790333708849964500,19.309964599609376,3.191232204437256,2.15571928024292,1.012836217880249
1790333708866405400,19.3264052734375,-0.39812469482421875,-0.5622806549072266,0.4289402961730957
1790333708882873000,19.342873046875,-1.5903143882751465,-0.12523841857910156,-0.511887788772583
1790333708899344100,19.35934423828125,2.4181952476501465,1.1403331756591797,0.10232973098754883
1790333708915780900,19.37578076171875,-0.3756890296936035,-0.4180731773376465,-0.9350287914276123
1790333708932244200,19.392244140625,-0.40563106536865234,0.8059687614440918,0.10376262664794922
1790333708948689700,19.408689697265626,0.15266990661621094,1.5054311752319336,-0.20542097091674805
1790333708965127700,19.425127685546876,-2.1270689964294434,-0.4152793884277344,0.41300368309020996
1790333708981561000,19.44156103515625,0.7859201431274414,0.10070991516113281,-0.2220757007598877
1790333708997995500,19.45799560546875,1.359971046447754,0.29833126068115234,-0.16299891471862793
1790333709014435600,19.474435546875,-0.8874907493591309,-0.25184059143066406,-0.45380091667175293
1790333709030877200,19.490877197265625,-1.0565290451049805,-0.36074352264404297,-0.5140237808227539
1790333709047310600,19.507310546875,0.1443920135498047,0.4477524757385254,-1.3742456436157227
1790333709063775000,19.52377490234375,-3.0563621520996094,-1.3318777084350586,0.15580177307128906
1790333709080246800,19.540246826171874,2.474292278289795,0.21246051788330078,1.252228856086731
1790333709096681000,19.556680908203123,-1.0383591651916504,-0.23726940155029297,0.31284546852111816
1790333709113118700,19.57311865234375,-1.6832756996154785,-0.029649734497070312,0.54048752784729
1790333709129554200,19.58955419921875,-9.24148178100586,-0.4562559127807617,-1.2291977405548096
1790333709145989000,19.605989013671874,-0.6725702285766602,-1.0159549713134766,-1.3102245330810547
1790333709162424600,19.622424560546875,1.883427619934082,-4.021833419799805,3.0972609519958496
1790333709178858800,19.638858642578125,2.4493279457092285,-0.30367183685302734,-1.7456910610198975
1790333709195301400,19.65530126953125,-0.49680042266845703,-0.025626182556152344,0.6335766315460205
1790333709211600400,19.671600341796875,1.7903666496276855,2.0265564918518066,1.6480185985565186
1790333709228036000,19.6880361328125,2.3758440017700195,1.1269240379333496,-0.715198278427124
1790333709244470300,19.70447021484375,-0.6406753063201904,-0.6375341415405273,0.8312326669692993
1790333709260902700,19.720902587890624,-0.3374176025390625,-1.630864143371582,0.2746620178222656
1790333709277339100,19.737339111328126,4.3225483894348145,-0.695404052734375,-1.6064655780792236
1790333709293775000,19.753775146484376,-2.4200072288513184,-0.5609149932861328,-0.791743278503418
1790333709310244000,19.770244140625,0.11200523376464844,1.2532320022583008,-1.8787791728973389
1790333709326680800,19.786680908203124,2.3409571647644043,0.13918590545654297,-0.0027265548706054688
1790333709343116800,19.80311669921875,-2.9967403411865234,3.1143698692321777,-0.7325959205627441
1790333709359553800,19.8195537109375,4.196316242218018,3.1291351318359375,0.32289767265319824
1790333709375989200,19.8359892578125,1.5888657569885254,3.53867769241333,-0.7358686923980713
1790333709392425200,19.85242529296875,0.3958449363708496,0.40042638778686523,1.8774386644363403
1790333709408860700,19.868860595703126,-0.2731490135192871,-0.22162914276123047,-0.3702819347381592
1790333709425293000,19.88529296875,-2.0850822925567627,1.1370010375976562,-0.3512449264526367
1790333709441733400,19.9017333984375,0.2353215217590332,3.6916065216064453,2.3447823524475098
1790333709458167000,19.9181669921875,3.271544933319092,4.715785980224609,-0.6953444480895996
1790333709474603000,19.93460302734375,0.0475921630859375,4.33969783782959,1.2144383192062378
1790333709491035600,19.95103564453125,0.3515892028808594,5.7171831130981445,1.2478363513946533
1790333709507469300,19.96746923828125,-1.0093557834625244,-26.647140502929688,-11.581254959106445
1790333709523904000,19.983904052734374,-0.8966696262359619,-6.443578720092773,-4.760936737060547
1790333709540341800,20.000341796875,-0.022565603256225586,-3.202803611755371,-0.3284187316894531
1790333709556809200,20.016809326171874,1.5911333560943604,0.05797863006591797,0.22737407684326172
1790333709573243600,20.03324365234375,-0.3214540481567383,1.0170674324035645,0.952674388885498
1790333709589681000,20.049680908203126,2.095903158187866,0.6385273933410645,0.8658337593078613
1790333709606120200,20.0661201171875,-0.4242420196533203,0.7435975074768066,-0.006890296936035156
1790333709622559500,20.0825595703125,-2.180812358856201,-0.3356027603149414,0.9651358127593994
1790333709638995500,20.098995361328125,0.4936563968658447,-0.8897161483764648,-0.34501171112060547
1790333709655432700,20.1154326171875,-0.8627262115478516,-1.6845388412475586,-0.5421020984649658
1790333709671869700,20.13186962890625,1.284269094467163,-0.5202512741088867,-0.6536662578582764
1790333709688316700,20.148316650390626,6.404274940490723,4.6621503829956055,-4.009093284606934
1790333709704754400,20.16475439453125,-2.1407876014709473,6.037294387817383,-1.2068629264831543
1790333709721194200,20.1811943359375,-3.152947187423706,-6.948686599731445,4.0494794845581055
1790333709737633500,20.197633544921874,0.30772876739501953,0.3458218574523926,0.08097434043884277
1790333709754072800,20.21407275390625,4.168021202087402,-1.7436046600341797,-0.4133319854736328
1790333709770509800,20.230509765625,1.9131436347961426,-2.0644121170043945,1.4624409675598145
1790333709786945300,20.2469453125,-1.517200231552124,0.903468132019043,-0.29666662216186523
1790333709803409400,20.263409423828126,-1.2114415168762207,3.036562919616699,0.2620084285736084
1790333709819844000,20.279843994140624,0.513671875,-2.1868386268615723,-0.5536270141601562
1790333709836278000,20.296278076171873,-0.3700404167175293,2.9092721939086914,0.7708539962768555
1790333709852711700,20.312711669921875,1.295264720916748,-1.8115415573120117,-0.8554625511169434
1790333709869148200,20.329148193359377,-3.067152500152588,2.1970787048339844,0.4749889373779297
1790333709885584600,20.345584716796875,0.3507990837097168,0.38655948638916016,-0.10039401054382324
1790333709902030600,20.362030517578123,2.039834976196289,0.20129919052124023,-0.631284236907959
1790333709918496000,20.37849609375,-0.01631021499633789,-1.4833950996398926,0.6909072399139404
1790333709934940000,20.39493994140625,0.03530406951904297,-0.1454153060913086,-0.3371469974517822
1790333709951374000,20.4113740234375,1.1552057266235352,-0.12328243255615234,0.11115145683288574
1790333709967814400,20.427814453125,-1.9521210193634033,0.9637346267700195,-0.1803576946258545
1790333709984257800,20.4442578125,-2.8267345428466797,2.6825976371765137,0.24860239028930664
1790333710000679000,20.460678955078127,-12.738447189331055,-5.195528507232666,2.503917932510376
1790333710017170200,20.477170166015625,0.9027600288391113,1.4128646850585938,0.5732884407043457
1790333710033605600,20.493605712890623,0.8168997764587402,-2.913167953491211,-1.7735755443572998
1790333710050068000,20.51006787109375,1.3058793544769287,-1.101414680480957,-2.3950388431549072
1790333710066468600,20.526468505859373,0.3405787944793701,0.6968502998352051,-0.473400354385376
