time,seconds_elapsed,z,y,x
1790333689695280000,0.155280029296875,4.697423934936523,7.790732383728027,-3.026270866394043
1790333689711755500,0.171755615234375,5.056553840637207,7.668628215789795,-3.0861260890960693
1790333689728221400,0.188221435546875,5.468356609344482,7.723694801330566,-3.2632968425750732
1790333689744773600,0.204773681640625,5.319916248321533,7.8098859786987305,-3.136404275894165
1790333689761241300,0.221241455078125,5.434837818145752,7.69735860824585,-3.00711727142334
1790333689777714000,0.2377138671875,5.504269599914551,7.534552574157715,-2.964021682739258
1790333689794161200,0.2541611328125,5.39174222946167,7.5968017578125,-2.96162748336792
1790333689810515000,0.270514892578125,5.145139217376709,7.8745293617248535,-3.272873640060425
1790333689826896000,0.286895751953125,4.436455726623535,8.068459510803223,-2.80361008644104
1790333689843345200,0.30334521484375,4.331110954284668,8.087613105773926,-2.741360902786255
1790333689859808500,0.31980859375,4.685452938079834,7.848193168640137,-2.6599581241607666
1790333689876285200,0.33628515625,4.912901878356934,7.903259754180908,-2.806004285812378
1790333689892751000,0.352751220703125,4.802768707275391,8.099584579467773,-2.765302896499634
1790333689909222400,0.369222412109375,4.7189717292785645,8.085219383239746,-2.365471363067627
1790333689925633800,0.3856337890625,4.738125324249268,8.259995460510254,-2.2649147510528564
1790333689942084900,0.4020849609375,4.876988887786865,8.312667846679688,-2.1811177730560303
1790333689958585000,0.418585205078125,4.843470096588135,8.47786808013916,-2.4372973442077637
1790333689975033000,0.435033203125,4.424484729766846,8.489839553833008,-2.2026655673980713
1790333689991472000,0.45147216796875,4.338293552398682,8.422801971435547,-2.123656988143921
1790333690007939000,0.46793896484375,4.288015365600586,8.224082946777344,-2.229001760482788
1790333690024390700,0.484390625,4.491522312164307,8.324639320373535,-2.5953147411346436
1790333690040889600,0.5008896484375,4.410119533538818,8.413225173950195,-2.470816135406494
1790333690057346300,0.51734619140625,4.2544965744018555,8.329427719116211,-2.2649147510528564
1790333690073783300,0.533783203125,4.228160381317139,8.317456245422363,-2.2146365642547607
1790333690090250200,0.550250244140625,4.213795185089111,8.26478385925293,-2.3032219409942627
1790333690106716000,0.5667158203125,4.199429988861084,8.453926086425781,-2.5761611461639404
1790333690123186400,0.5831865234375,3.885789394378662,8.42040729522705,-2.3032219409942627
1790333690139626500,0.59962646484375,3.909731388092041,8.418013572692871,-2.365471363067627
1790333690156091400,0.61609130859375,3.9695863723754883,8.329427719116211,-2.300827741622925
1790333690172544000,0.6325439453125,4.24970817565918,8.418013572692871,-2.4468741416931152
1790333690188989400,0.648989501953125,4.022258758544922,8.547300338745117,-2.209848165512085
1790333690205455600,0.66545556640625,3.8738183975219727,8.506598472595215,-2.1045033931732178
1790333690221932500,0.6819326171875,3.955221176147461,8.480262756347656,-2.1595699787139893
1790333690238420500,0.69842041015625,4.043806552886963,8.406042098999023,-2.1954829692840576
1790333690254896400,0.714896484375,4.122815132141113,8.611943244934082,-2.4827871322631836
1790333690271375600,0.731375732421875,3.7828385829925537,8.518569946289062,-2.1547815799713135
1790333690287875600,0.74787548828125,3.885789394378662,8.528146743774414,-2.1547815799713135
1790333690304352300,0.764352294921875,3.974374771118164,8.394071578979492,-2.0877439975738525
1790333690320843300,0.78084326171875,4.264073371887207,8.458714485168457,-2.365471363067627
1790333690337325000,0.797324951171875,4.129997730255127,8.640673637390137,-2.2912509441375732
1790333690353796000,0.813796142578125,4.02465295791626,8.549694061279297,-2.166752576828003
1790333690370263600,0.830263671875,4.089296340942383,8.470685958862305,-2.1954829692840576
1790333690386741000,0.846740966796875,4.2090067863464355,8.346187591552734,-2.2218191623687744
1790333690403232000,0.86323193359375,4.345476150512695,8.559270858764648,-2.5115175247192383
1790333690419710200,0.879710205078125,3.8546648025512695,8.542511940002441,-2.1475989818573
1790333690436158000,0.896157958984375,4.0294413566589355,8.556877136230469,-2.2242133617401123
1790333690452597200,0.91259716796875,4.055777549743652,8.422801971435547,-2.145204782485962
1790333690469069800,0.92906982421875,4.197035789489746,8.415618896484375,-2.3056161403656006
1790333690485561600,0.9455615234375,4.10366153717041,8.62630844116211,-2.3702597618103027
1790333690502035700,0.96203564453125,3.8977603912353516,8.588001251220703,-2.0877439975738525
1790333690518510800,0.9785107421875,4.027047157287598,8.446743965148926,-2.2026655673980713
1790333690535010300,0.99501025390625,4.0533833503723145,8.339004516601562,-2.2385785579681396
1790333690551495400,1.011495361328125,4.235342979431152,8.473079681396484,-2.4899697303771973
1790333690567990800,1.02799072265625,3.9456443786621094,8.604761123657227,-2.248155355453491
1790333690584476400,1.044476318359375,3.9480385780334473,8.561665534973145,-2.073378562927246
1790333690600967200,1.06096728515625,4.228160381317139,8.374917984008789,-2.0829553604125977
1790333690617445400,1.0774453125,4.316745758056641,8.382100105285645,-2.2194249629974365
1790333690633930200,1.09393017578125,4.326322555541992,8.616731643676758,-2.470816135406494
1790333690650398000,1.11039794921875,3.861847400665283,8.611943244934082,-2.0614075660705566
1790333690666878000,1.1268779296875,3.9863457679748535,8.573636054992676,-2.1380221843719482
1790333690683348000,1.143347900390625,4.173093795776367,8.35336971282959,-2.10210919380188
1790333690699847200,1.15984716796875,4.364629745483398,8.47786808013916,-2.363077163696289
1790333690716333300,1.176333251953125,4.101267337799072,8.702922821044922,-2.2457611560821533
1790333690732829200,1.1928291015625,3.8977603912353516,8.616731643676758,-2.049436569213867
1790333690749324500,1.209324462890625,4.091690540313721,8.40843677520752,-2.078166961669922
1790333690765796000,1.225796142578125,4.280832767486572,8.422801971435547,-2.279279947280884
1790333690782295000,1.242294921875,4.288015365600586,8.640673637390137,-2.5043349266052246
1790333690798792700,1.258792724609375,3.845088005065918,8.571242332458496,-2.0853497982025146
1790333690815263700,1.275263671875,3.993528366088867,8.547300338745117,-2.1571757793426514
1790333690831743700,1.29174365234375,4.036623954772949,8.360552787780762,-2.078166961669922
1790333690848237600,1.308237548828125,4.302380561828613,8.554482460021973,-2.454056739807129
1790333690864732400,1.324732421875,4.000710964202881,8.628703117370605,-2.2840683460235596
1790333690881196500,1.341196533203125,3.7900211811065674,8.580819129943848,-2.1116859912872314
1790333690897664300,1.357664306640625,3.9169139862060547,8.451532363891602,-2.1523873805999756
1790333690914146600,1.374146484375,4.07014274597168,8.317456245422363,-2.190694570541382
1790333690930616800,1.390616943359375,4.213795185089111,8.583212852478027,-2.4229321479797363
1790333690947117000,1.407116943359375,3.866635799407959,8.588001251220703,-2.169146776199341
1790333690963566800,1.42356689453125,3.8331170082092285,8.542511940002441,-2.161964178085327
1790333690980092200,1.440092041015625,3.9001545906066895,8.429984092712402,-2.233790159225464
1790333690996572000,1.456572021484375,4.163516521453857,8.518569946289062,-2.516305923461914
1790333691013056000,1.473055908203125,3.9671921730041504,8.643068313598633,-2.389413356781006
1790333691029531400,1.489531494140625,3.8091750144958496,8.59997272491455,-2.2649147510528564
1790333691046009300,1.50600927734375,3.8283286094665527,8.508993148803711,-2.231395959854126
1790333691062505000,1.5225048828125,4.01268196105957,8.367734909057617,-2.3726539611816406
1790333691078959400,1.53895947265625,4.285621166229248,8.508993148803711,-2.6575639247894287
1790333691095453400,1.555453369140625,3.9384617805480957,8.528146743774414,-2.470816135406494
1790333691111974700,1.571974609375,3.7924153804779053,8.5903959274292,-2.5234885215759277
1790333691128441600,1.588441650390625,3.7038300037384033,8.504204750061035,-2.456450939178467
1790333691144905000,1.604905029296875,3.9911341667175293,8.56645393371582,-2.628833532333374
1790333691161362700,1.62136279296875,3.883395195007324,8.743624687194824,-2.561795711517334
1790333691177852700,1.637852783203125,3.5649664402008057,8.662221908569336,-2.4372973442077637
1790333691194325800,1.65432568359375,3.576937437057495,8.523358345031738,-2.4420857429504395
1790333691210818300,1.670818359375,3.665522813796997,8.365341186523438,-2.4851813316345215
1790333691227306200,1.68730615234375,3.825934410095215,8.595184326171875,-2.7940332889556885
1790333691243787300,1.703787353515625,3.6176388263702393,8.664615631103516,-2.4684219360351562
1790333691260265500,1.720265380859375,3.8570590019226074,8.5903959274292,-2.427720546722412
1790333691276709600,1.736709716796875,3.936067581176758,8.453926086425781,-2.3774423599243164
1790333691293187600,1.7531875,4.046200752258301,8.446743965148926,-2.494758129119873
1790333691309681700,1.769681640625,3.8786067962646484,8.640673637390137,-2.585737943649292
1790333691326148900,1.78614892578125,3.56017804145813,8.62391471862793,-2.410961151123047
1790333691342606800,1.80260693359375,3.531447410583496,8.619126319885254,-2.38462495803833
1790333691359079400,1.819079345703125,3.6774938106536865,8.576030731201172,-2.3558945655822754
1790333691375541800,1.835541748046875,3.7852327823638916,8.710105895996094,-2.4851813316345215
1790333691392006100,1.852006103515625,3.428496837615967,8.803479194641113,-2.3271639347076416
1790333691408465400,1.86846533203125,3.220201253890991,8.75080680847168,-2.22660756111145
1790333691424940800,1.88494091796875,3.464409828186035,8.611943244934082,-2.2601263523101807
1790333691441443300,1.901443359375,3.641580820083618,8.59997272491455,-2.365471363067627
1790333691456948500,1.916948486328125,3.751713991165161,8.829815864562988,-2.63362193107605
1790333691473447700,1.93344775390625,3.421314239501953,8.913613319396973,-2.4133553504943848
1790333691489936000,1.949935791015625,3.485957622528076,8.7268648147583,-2.1978771686553955
1790333691506409200,1.9664091796875,3.6798880100250244,8.506598472595215,-2.185906171798706
1790333691522905900,1.98290576171875,3.778050184249878,8.549694061279297,-2.3942017555236816
1790333691539375000,1.999375,3.550601005554199,8.853757858276367,-2.557007312774658
1790333691555840500,2.015840576171875,3.265691041946411,8.848969459533691,-2.298433542251587
1790333691572319000,2.032319091796875,3.3710360527038574,8.688557624816895,-2.1571757793426514
1790333691588809000,2.04880908203125,3.550601005554199,8.556877136230469,-2.300827741622925
1790333691605279000,2.065279052734375,3.7660791873931885,8.686163902282715,-2.604891538619995
1790333691621778700,2.08177880859375,2.959233283996582,8.83699893951416,-2.513911724090576
1790333691638253800,2.09825390625,2.8347349166870117,8.829815864562988,-2.4396915435791016
1790333691654721300,2.11472119140625,3.2178070545196533,8.779537200927734,-2.27209734916687
1790333691671216600,2.131216552734375,3.6152446269989014,8.83699893951416,-2.367865562438965
1790333691687716000,2.147716064453125,3.5434184074401855,8.96149730682373,-2.449268341064453
1790333691704225000,2.16422509765625,3.3063924312591553,8.832210540771484,-2.252943754196167
1790333691720695600,2.180695556640625,3.5051112174987793,8.564059257507324,-2.4372973442077637
1790333691737151700,2.19715185546875,3.3470940589904785,8.279149055480957,-2.762908697128296
1790333691753596700,2.2135966796875,3.600879430770874,8.501810073852539,-3.047818660736084
1790333691770099500,2.230099365234375,3.7684733867645264,8.485051155090332,-2.557007312774658
1790333691786563600,2.2465634765625,4.05817174911499,8.525752067565918,-2.22660756111145
1790333691803030800,2.26303076171875,4.02465295791626,8.516175270080566,-2.166752576828003
1790333691819563300,2.279563232421875,3.998316764831543,8.609549522399902,-2.4444799423217773
1790333691836055600,2.2960556640625,3.691859006881714,8.882488250732422,-2.5522189140319824
1790333691852555500,2.312555419921875,3.4380736351013184,8.767566680908203,-2.3056161403656006
1790333691869033200,2.329033203125,3.7612907886505127,8.647856712341309,-2.3319525718688965
1790333691885497600,2.34549755859375,4.043806552886963,8.40843677520752,-2.3247697353363037
1790333691901973800,2.361973876953125,4.2760443687438965,8.647856712341309,-2.6886885166168213
1790333691918441500,2.37844140625,3.797203779220581,8.645462036132812,-2.298433542251587
1790333691934920400,2.39492041015625,3.8163576126098633,8.674192428588867,-2.367865562438965
1790333691951405800,2.41140576171875,3.976768970489502,8.504204750061035,-2.3367409706115723
1790333691967902700,2.42790283203125,4.213795185089111,8.556877136230469,-2.557007312774658
1790333691984401000,2.44440087890625,3.751713991165161,8.683769226074219,-2.427720546722412
1790333692000851200,2.460851318359375,3.627215623855591,8.635885238647461,-2.3774423599243164
1790333692017328400,2.477328369140625,3.732560396194458,8.544905662536621,-2.3367409706115723
1790333692033806600,2.493806640625,3.801992416381836,8.449137687683105,-2.3367409706115723
1790333692050253600,2.510253662109375,3.9839515686035156,8.743624687194824,-2.5474305152893066
1790333692066643700,2.526643798828125,3.620033025741577,8.71489429473877,-2.2002713680267334
1790333692083113200,2.54311328125,3.751713991165161,8.702922821044922,-2.126051187515259
1790333692099585000,2.5595849609375,3.6607344150543213,8.554482460021973,-2.0685901641845703
1790333692116078800,2.576078857421875,3.641580820083618,8.638279914855957,-2.3247697353363037
1790333692131614200,2.5916142578125,3.531447410583496,8.851364135742188,-2.425326347351074
1790333692148076800,2.608076904296875,3.397372245788574,8.7268648147583,-2.056619167327881
1790333692164558800,2.624558837890625,3.6607344150543213,8.56884765625,-2.0805611610412598
1790333692180988000,2.64098779296875,3.687070608139038,8.47547435760498,-2.2409727573394775
1790333692197345500,2.657345458984375,3.713406801223755,8.647856712341309,-2.631227731704712
1790333692213873400,2.673873291015625,3.318363666534424,8.760383605957031,-2.3989901542663574
1790333692230390000,2.69039013671875,3.5410242080688477,8.700529098510742,-2.0925323963165283
1790333692246852600,2.7068525390625,3.8810009956359863,8.552088737487793,-2.1068975925445557
1790333692263387000,2.723386962890625,3.9264907836914062,8.530540466308594,-2.2218191623687744
1790333692279888100,2.73988818359375,3.8570590019226074,8.83939266204834,-2.4420857429504395
1790333692296384500,2.756384521484375,3.294421434402466,8.803479194641113,-2.0590133666992188
1790333692312876300,2.772876220703125,3.272873640060425,8.702922821044922,-2.0015525817871094
1790333692329335800,2.789335693359375,3.667917013168335,8.497021675109863,-2.188300371170044
1790333692345865500,2.805865478515625,3.861847400665283,8.619126319885254,-2.456450939178467
1790333692362332700,2.822332763671875,3.641580820083618,8.829815864562988,-2.387019157409668
1790333692378850800,2.838850830078125,3.550601005554199,8.712499618530273,-1.9584569931030273
1790333692395363300,2.85536328125,3.8091750144958496,8.523358345031738,-2.008735179901123
1790333692411822300,2.871822265625,4.055777549743652,8.49941635131836,-2.341529369354248
1790333692428311000,2.88831103515625,3.974374771118164,8.762778282165527,-2.5498247146606445
1790333692444778500,2.904778564453125,3.3877954483032227,8.762778282165527,-2.056619167327881
1790333692461252400,2.92125244140625,3.471592426300049,8.779537200927734,-2.0877439975738525
1790333692477731300,2.9377314453125,3.751713991165161,8.544905662536621,-2.145204782485962
1790333692494189600,2.954189453125,4.039018154144287,8.734047889709473,-2.4468741416931152
1790333692510679000,2.970678955078125,3.6750996112823486,8.731653213500977,-2.250549554824829
1790333692527161300,2.987161376953125,3.3207578659057617,8.609549522399902,-2.118868589401245
1790333692543639800,3.003639892578125,3.359065055847168,8.564059257507324,-2.250549554824829
1790333692560141000,3.02014111328125,3.624821424484253,8.556877136230469,-2.298433542251587
1790333692576643300,3.036643310546875,3.6296098232269287,8.904036521911621,-2.382230758666992
1790333692593143800,3.053143798828125,3.4332852363586426,8.791508674621582,-2.011129379272461
1790333692609586000,3.0695859375,3.7636849880218506,8.647856712341309,-2.1547815799713135
1790333692626081300,3.086081298828125,3.840299606323242,8.403648376464844,-2.279279947280884
1790333692642570000,3.102570068359375,4.180276393890381,8.513781547546387,-2.564189910888672
1790333692659040300,3.119040283203125,4.350264549255371,8.518569946289062,-2.0470423698425293
1790333692675536400,3.135536376953125,4.5394062995910645,8.597578048706055,-1.9369091987609863
1790333692691983600,3.151983642578125,4.431667327880859,8.573636054992676,-1.9033904075622559
1790333692708489200,3.1684892578125,4.32871675491333,8.628703117370605,-2.1045033931732178
1790333692724988000,3.18498779296875,3.8570590019226074,8.83699893951416,-2.43011474609375
1790333692741454600,3.20145458984375,3.507505416870117,8.655038833618164,-2.126051187515259
1790333692757984800,3.21798486328125,3.797203779220581,8.554482460021973,-2.140416383743286
1790333692774488000,3.234488037109375,4.005499362945557,8.377311706542969,-2.1547815799713135
1790333692790996000,3.250995849609375,4.072536945343018,8.53293514251709,-2.454056739807129
1790333692807465700,3.2674658203125,3.641580820083618,8.69334602355957,-2.360682964324951
1790333692823852000,3.28385205078125,3.485957622528076,8.60236644744873,-2.0829553604125977
1790333692840359000,3.30035888671875,3.624821424484253,8.523358345031738,-2.0685901641845703
1790333692856831500,3.31683154296875,3.890577793121338,8.513781547546387,-2.1811177730560303
1790333692873335800,3.333335693359375,4.039018154144287,8.738836288452148,-2.449268341064453
1790333692889792300,3.349792236328125,3.5721490383148193,8.65743350982666,-2.070984363555908
1790333692906249500,3.36624951171875,3.7612907886505127,8.544905662536621,-2.0422539710998535
1790333692922748700,3.382748779296875,4.091690540313721,8.42040729522705,-2.070984363555908
1790333692939219700,3.3992197265625,4.316745758056641,8.44195556640625,-2.1978771686553955
1790333692955714800,3.41571484375,4.041412353515625,8.710105895996094,-2.4133553504943848
1790333692972209200,3.432209228515625,3.627215623855591,8.614337921142578,-2.121262788772583
1790333692988664600,3.44866455078125,3.804386615753174,8.525752067565918,-2.142810583114624
1790333693005192200,3.465192138671875,3.9911341667175293,8.47786808013916,-2.1547815799713135
1790333693021691400,3.48169140625,4.10366153717041,8.69334602355957,-2.403778553009033
1790333693038166300,3.498166259765625,3.732560396194458,8.798690795898438,-2.1715409755706787
1790333693054574600,3.51457470703125,3.6607344150543213,8.705317497253418,-1.9584569931030273
1790333693071041800,3.531041748046875,3.976768970489502,8.523358345031738,-1.9919757843017578
1790333693087428600,3.5474287109375,4.10366153717041,8.506598472595215,-2.185906171798706
1790333693103900200,3.563900146484375,4.031835556030273,8.762778282165527,-2.4851813316345215
1790333693119339800,3.57933984375,3.5482068061828613,8.695740699768066,-2.0039467811584473
1790333693135785500,3.595785400390625,3.3925838470458984,8.520963668823242,-1.9919757843017578
1790333693152241700,3.61224169921875,3.177105665206909,8.540117263793945,-2.2002713680267334
1790333693168739300,3.6287392578125,3.6942532062530518,8.810662269592285,-2.319981336593628
1790333693185214000,3.6452138671875,4.0078935623168945,9.205705642700195,-2.1380221843719482
1790333693201729800,3.661729736328125,4.431667327880859,8.724471092224121,-1.766920804977417
1790333693218226400,3.678226318359375,4.8937482833862305,8.001421928405762,-2.38462495803833
1790333693234697500,3.694697509765625,4.802768707275391,8.006210327148438,-2.808398485183716
1790333693251191000,3.71119091796875,4.702212333679199,8.396465301513672,-2.9520506858825684
1790333693267709700,3.727709716796875,4.14915132522583,8.712499618530273,-1.946485996246338
1790333693284175400,3.74417529296875,3.914519786834717,8.87051773071289,-1.556231141090393
1790333693300701000,3.760700927734375,3.8570590019226074,8.798690795898438,-1.6496049165725708
1790333693317191200,3.777191162109375,3.8810009956359863,8.822632789611816,-2.212242364883423
1790333693333706000,3.7937060546875,3.670311212539673,8.875306129455566,-2.3056161403656006
1790333693350174700,3.8101748046875,3.620033025741577,8.597578048706055,-2.1164743900299072
1790333693366625000,3.826625,4.07014274597168,8.276755332946777,-2.248155355453491
1790333693383138800,3.843138916015625,4.290409564971924,8.08282470703125,-2.315192937850952
1790333693399614700,3.85961474609375,4.120420932769775,8.487444877624512,-2.6240451335906982
1790333693416138200,3.87613818359375,3.648763418197632,8.520963668823242,-2.3127987384796143
1790333693432611300,3.892611328125,3.665522813796997,8.561665534973145,-2.229001760482788
1790333693449092900,3.9090927734375,3.706224203109741,8.470685958862305,-2.2146365642547607
1790333693465602000,3.92560205078125,4.151545524597168,8.549694061279297,-2.382230758666992
1790333693482067000,3.94206689453125,4.050989151000977,8.719682693481445,-2.2673089504241943
1790333693498558700,3.958558837890625,3.756502389907837,8.643068313598633,-1.9967641830444336
1790333693515020800,3.975020751953125,3.7493197917938232,8.571242332458496,-2.0039467811584473
1790333693531511300,3.99151123046875,3.778050184249878,8.489839553833008,-2.248155355453491
1790333693548007700,4.008007568359375,3.794809579849243,8.664615631103516,-2.5761611461639404
1790333693564471800,4.024471923828125,3.404554843902588,8.832210540771484,-2.2625205516815186
1790333693580972300,4.04097216796875,3.406949043273926,8.746018409729004,-2.097320795059204
1790333693597436700,4.057436767578125,3.641580820083618,8.537723541259766,-2.070984363555908
1790333693613900800,4.07390087890625,3.928884983062744,8.434772491455078,-2.2170307636260986
1790333693630413800,4.090413818359375,4.015076160430908,8.791508674621582,-2.4636335372924805
1790333693646871300,4.106871337890625,3.576937437057495,8.7484130859375,-1.8986018896102905
1790333693663369200,4.123369140625,3.7181951999664307,8.650250434875488,-1.9488801956176758
1790333693679819800,4.13981982421875,3.995922565460205,8.470685958862305,-1.9776105880737305
1790333693696283100,4.156283203125,4.2544965744018555,8.631096839904785,-2.2433669567108154
1790333693712728800,4.172728759765625,3.6607344150543213,8.939949035644531,-1.9967641830444336
1790333693729187600,4.1891875,3.73016619682312,8.798690795898438,-1.8363527059555054
1790333693745687000,4.20568701171875,3.8738183975219727,8.559270858764648,-1.824381709098816
1790333693762186000,4.22218603515625,3.890577793121338,8.413225173950195,-1.9800047874450684
1790333693778687700,4.238687744140625,3.931279182434082,8.81784439086914,-2.367865562438965
1790333693795141400,4.255141357421875,3.490746021270752,8.810662269592285,-1.9728221893310547
1790333693811583000,4.2715830078125,3.8331170082092285,8.674192428588867,-1.9919757843017578
1790333693828096800,4.2880966796875,3.952826976776123,8.453926086425781,-1.9536685943603516
1790333693844559600,4.3045595703125,4.173093795776367,8.573636054992676,-2.2433669567108154
1790333693861065500,4.3210654296875,3.799597978591919,8.7484130859375,-2.1930887699127197
1790333693877577000,4.337576904296875,3.5649664402008057,8.607154846191406,-1.9704279899597168
1790333693894054400,4.354054443359375,3.706224203109741,8.425195693969727,-2.118868589401245
1790333693910549800,4.3705498046875,3.7684733867645264,8.360552787780762,-2.2673089504241943
1790333693927015700,4.387015625,3.7014358043670654,8.681375503540039,-2.607285737991333
1790333693943538400,4.403538330078125,3.2848446369171143,8.707711219787598,-2.0925323963165283
1790333693960004900,4.4200048828125,3.5242648124694824,8.595184326171875,-1.8746598958969116
1790333693976436700,4.436436767578125,3.6559460163116455,8.415618896484375,-1.9081788063049316
1790333693992928300,4.45292822265625,3.6296098232269287,8.504204750061035,-2.0614075660705566
1790333694009413400,4.469413330078125,3.3710360527038574,8.81784439086914,-2.0805611610412598
1790333694025851100,4.48585107421875,3.0190882682800293,8.820239067077637,-1.45806884765625
1790333694042397200,4.502397216796875,3.1196448802948,8.966285705566406,-1.2521674633026123
1790333694058837200,4.518837158203125,3.426102638244629,9.011775016784668,-1.2330138683319092
1790333694075304200,4.53530419921875,3.7277719974517822,9.181763648986816,-1.4628572463989258
1790333694091769300,4.551769287109375,3.8091750144958496,9.241618156433105,-1.3455413579940796
1790333694108207600,4.56820751953125,4.089296340942383,9.083600997924805,-1.2330138683319092
1790333694124700000,4.584699951171875,4.692635536193848,8.834604263305664,-1.4484920501708984
1790333694141137200,4.60113720703125,5.061342239379883,8.597578048706055,-1.8555063009262085
1790333694157598200,4.61759814453125,4.932055473327637,8.698134422302246,-2.145204782485962
1790333694174112500,4.634112548828125,4.376600742340088,8.473079681396484,-1.8938134908676147
1790333694190578000,4.650577880859375,4.32871675491333,8.346187591552734,-2.0015525817871094
1790333694207065900,4.66706591796875,4.513070106506348,8.152256965637207,-2.2577321529388428
1790333694223526400,4.6835263671875,4.273650169372559,8.238448143005371,-2.5761611461639404
1790333694240012000,4.700011962890625,3.60566782951355,8.394071578979492,-2.3487119674682617
1790333694256469000,4.716468994140625,3.1866824626922607,8.485051155090332,-1.8818424940109253
1790333694272950500,4.732950439453125,3.4380736351013184,8.516175270080566,-1.8387469053268433
1790333694289453000,4.749453125,3.801992416381836,8.429984092712402,-2.0685901641845703
1790333694305887500,4.765887451171875,4.1611223220825195,8.772355079650879,-2.4372973442077637
1790333694322380300,4.78238037109375,3.8786067962646484,8.698134422302246,-1.965639591217041
1790333694338816000,4.79881591796875,3.9624037742614746,8.669404029846191,-1.8267759084701538
1790333694355277800,4.81527783203125,4.2090067863464355,8.434772491455078,-1.8076223134994507
1790333694371760400,4.831760498046875,4.443638324737549,8.480262756347656,-2.145204782485962
1790333694388230700,4.848230712890625,4.266467571258545,8.619126319885254,-2.0374655723571777
1790333694404752100,4.864752197265625,4.3191399574279785,8.528146743774414,-1.824381709098816
1790333694421222100,4.88122216796875,4.637568473815918,8.487444877624512,-1.9177556037902832
1790333694437736700,4.89773681640625,4.886565685272217,8.439560890197754,-1.944091796875
1790333694454216000,4.9142158203125,4.76924991607666,8.848969459533691,-1.9512743949890137
1790333694470688500,4.9306884765625,4.146757125854492,8.743624687194824,-1.4269442558288574
1790333694487185700,4.947185546875,4.1156325340271,8.78193187713623,-1.400607943534851
1790333694503701500,4.963701416015625,4.039018154144287,8.674192428588867,-1.4245500564575195
1790333694520191200,4.980191162109375,4.019864559173584,8.722076416015625,-1.5897499322891235
1790333694536695000,4.996695068359375,3.8546648025512695,8.973467826843262,-1.7621324062347412
1790333694553170400,5.01317041015625,3.536235809326172,8.736441612243652,-1.4724340438842773
1790333694569666600,5.02966650390625,3.732560396194458,8.571242332458496,-1.5466543436050415
1790333694586122500,5.04612255859375,3.971980571746826,8.389283180236816,-1.6376339197158813
1790333694602626800,5.062626708984375,4.223371982574463,8.611943244934082,-2.0590133666992188
1790333694619105500,5.07910546875,3.936067581176758,8.743624687194824,-1.9560627937316895
1790333694635564500,5.095564453125,3.9408559799194336,8.643068313598633,-1.764526605606079
1790333694652088000,5.112088134765625,4.062960147857666,8.343792915344238,-1.623268723487854
1790333694668551400,5.128551513671875,4.364629745483398,8.147468566894531,-1.764526605606079
1790333694685068300,5.145068359375,4.441244125366211,8.638279914855957,-2.3582887649536133
1790333694701531000,5.16153076171875,3.687070608139038,8.793902397155762,-1.7836803197860718
1790333694717979000,5.177978759765625,3.912125587463379,8.5903959274292,-1.3670891523361206
1790333694734496300,5.194496337890625,4.28322696685791,8.250418663024902,-1.3311761617660522
1790333694750983400,5.2109833984375,4.558559894561768,8.382100105285645,-1.9177556037902832
1790333694767474200,5.22747412109375,3.883395195007324,8.884882926940918,-2.1547815799713135
1790333694783973400,5.243973388671875,3.1459810733795166,8.865729331970215,-1.6184803247451782
1790333694800419800,5.260419921875,3.442862033843994,8.358158111572266,-1.3718775510787964
1790333694816924700,5.276924560546875,3.93367338180542,8.003816604614258,-1.455674648284912
1790333694833394000,5.293393798828125,4.594472885131836,8.346187591552734,-2.2409727573394775
1790333694849834000,5.309833984375,3.928884983062744,8.65982723236084,-1.922544002532959
1790333694866358300,5.326358154296875,3.737348794937134,8.875306129455566,-1.723825216293335
1790333694882857700,5.342857666015625,4.173093795776367,8.432378768920898,-1.3335703611373901
1790333694899344600,5.3593447265625,4.764461517333984,8.406042098999023,-1.5275006294250488
1790333694915839500,5.375839599609375,4.865017890930176,8.904036521911621,-1.742978811264038
1790333694932321800,5.39232177734375,4.197035789489746,9.026140213012695,-1.1971008777618408
1790333694948845300,5.40884521484375,3.9480385780334473,8.796297073364258,-0.9169792532920837
1790333694965280500,5.425280517578125,4.163516521453857,8.406042098999023,-1.039083480834961
1790333694981802200,5.44180224609375,4.247313976287842,8.705317497253418,-1.6280571222305298
1790333694998288000,5.458287841796875,3.4380736351013184,8.87291145324707,-1.414973258972168
1790333695014776000,5.474776123046875,3.268085241317749,9.050082206726074,-1.3215993642807007
1790333695031271700,5.491271728515625,3.624821424484253,8.686163902282715,-1.1994950771331787
1790333695047731200,5.507731201171875,4.6471452713012695,8.820239067077637,-1.9560627937316895
1790333695064192000,5.52419189453125,4.49870491027832,8.98543930053711,-1.9345149993896484
1790333695080652500,5.540652587890625,4.1156325340271,8.913613319396973,-1.4844050407409668
1790333695097129700,5.557129638671875,4.285621166229248,8.619126319885254,-1.4652514457702637
1790333695113628200,5.573628173828125,4.697423934936523,8.178592681884766,-1.6184803247451782
1790333695130121000,5.590120849609375,4.618414878845215,8.621520042419434,-2.231395959854126
1790333695146645500,5.6066455078125,3.794809579849243,8.71489429473877,-1.7142484188079834
1790333695163099400,5.623099365234375,3.5386300086975098,8.810662269592285,-1.3934253454208374
1790333695179591400,5.63959130859375,3.821146011352539,8.286332130432129,-1.3000515699386597
1790333695196087300,5.65608740234375,4.393360137939453,8.576030731201172,-2.427720546722412
1790333695212560400,5.672560302734375,3.60566782951355,8.724471092224121,-1.843535304069519
1790333695229028900,5.68902880859375,3.4620156288146973,8.772355079650879,-1.115697979927063
1790333695245527800,5.70552783203125,3.952826976776123,8.53293514251709,-0.7326257228851318
1790333695261997000,5.7219970703125,4.836287498474121,8.860940933227539,-1.6639702320098877
1790333695278448000,5.7384482421875,4.766855716705322,8.992621421813965,-2.0446481704711914
1790333695294946000,5.754946044921875,4.019864559173584,8.504204750061035,-1.2761094570159912
1790333695311468800,5.77146875,4.1180267333984375,8.339004516601562,-1.7142484188079834
1790333695327966000,5.787966064453125,4.158728122711182,8.355764389038086,-2.4660277366638184
1790333695344437800,5.804437744140625,3.9480385780334473,8.216899871826172,-2.3056161403656006
1790333695360937500,5.8209375,4.108449935913086,7.857769966125488,-2.03507137298584
1790333695377402600,5.837402587890625,4.393360137939453,8.293514251708984,-2.4444799423217773
1790333695393900300,5.853900390625,4.197035789489746,8.494627952575684,-2.169146776199341
1790333695410373400,5.870373291015625,4.311957359313965,8.434772491455078,-1.843535304069519
1790333695426888200,5.88688818359375,4.51067590713501,8.633491516113281,-2.049436569213867
1790333695443385300,5.90338525390625,4.137180328369141,8.391676902770996,-1.8507179021835327
1790333695459846700,5.9198466796875,4.575319290161133,8.209717750549316,-2.161964178085327
1790333695476338700,5.936338623046875,4.606443881988525,8.214506149291992,-2.3558945655822754
1790333695492839400,5.95283935546875,4.185064792633057,8.030152320861816,-2.1571757793426514
1790333695509313000,5.96931298828125,4.352658748626709,7.977479934692383,-2.2912509441375732
1790333695525817900,5.98581787109375,4.414907932281494,8.214506149291992,-2.4372973442077637
1790333695542308400,6.002308349609375,4.491522312164307,8.312667846679688,-2.008735179901123
1790333695558827300,6.0188271484375,4.692635536193848,8.379706382751465,-1.86508309841156
1790333695575320300,6.0353203125,4.548983097076416,8.556877136230469,-1.8195933103561401
1790333695591758600,6.051758544921875,4.398148536682129,8.547300338745117,-1.6089035272598267
1790333695608284700,6.06828466796875,4.575319290161133,8.588001251220703,-1.745373010635376
1790333695624780500,6.084780517578125,4.637568473815918,8.51138687133789,-1.7812861204147339
1790333695641275400,6.101275390625,5.032611846923828,8.583212852478027,-1.900996208190918
1790333695657757200,6.117757080078125,5.018246650695801,8.56884765625,-1.7621324062347412
1790333695674239000,6.134239013671875,4.898536682128906,8.501810073852539,-1.6208745241165161
1790333695690710500,6.15071044921875,4.982333660125732,8.746018409729004,-1.6639702320098877
1790333695707148300,6.167148193359375,4.857835292816162,8.80587387084961,-1.4532804489135742
1790333695723611000,6.18361083984375,4.912901878356934,8.911218643188477,-1.4867992401123047
1790333695740072200,6.200072265625,4.503493309020996,8.875306129455566,-1.400607943534851
1790333695756563200,6.216563232421875,4.2760443687438965,8.633491516113281,-1.4891934394836426
1790333695773059000,6.23305908203125,4.280832767486572,8.695740699768066,-1.843535304069519
1790333695789524500,6.2495244140625,3.825934410095215,8.415618896484375,-1.7549498081207275
1790333695806016000,6.26601611328125,3.912125587463379,8.406042098999023,-1.9512743949890137
1790333695822454000,6.2824541015625,3.646369218826294,8.51138687133789,-1.922544002532959
1790333695838946800,6.29894677734375,3.3303346633911133,8.47786808013916,-1.845929503440857
1790333695855436800,6.315436767578125,3.2537200450897217,8.681375503540039,-1.9967641830444336
1790333695871914000,6.3319140625,2.9903578758239746,8.631096839904785,-1.8698714971542358
1790333695888409000,6.3484091796875,3.071760892868042,8.576030731201172,-1.922544002532959
1790333695904855600,6.36485546875,3.4356794357299805,8.585607528686523,-2.0829553604125977
1790333695921348600,6.3813486328125,3.7277719974517822,8.801085472106934,-2.2601263523101807
1790333695937835800,6.397835693359375,3.7900211811065674,8.638279914855957,-1.9033904075622559
1790333695954273800,6.414273681640625,4.32871675491333,8.49941635131836,-2.1475989818573
1790333695970767400,6.430767333984375,4.6734819412231445,8.540117263793945,-2.3798365592956543
1790333695987246300,6.447246337890625,4.702212333679199,8.439560890197754,-2.0614075660705566
1790333696003711700,6.463711669921875,4.802768707275391,8.504204750061035,-1.8818424940109253
1790333696020176100,6.480176025390625,4.496310710906982,8.487444877624512,-1.8052281141281128
1790333696036641000,6.49664111328125,4.165910720825195,8.377311706542969,-1.9943699836730957
1790333696053108700,6.513108642578125,4.14915132522583,8.360552787780762,-2.1763293743133545
1790333696069492700,6.52949267578125,4.086902141571045,8.396465301513672,-2.3582887649536133
1790333696085995800,6.545995849609375,3.950432777404785,8.432378768920898,-2.382230758666992
1790333696102422500,6.562422607421875,4.1395745277404785,8.401253700256348,-2.4157495498657227
1790333696118891300,6.578891357421875,4.438849925994873,8.554482460021973,-2.5234885215759277
1790333696135397400,6.5953974609375,4.343081951141357,8.520963668823242,-2.360682964324951
1790333696151861200,6.611861328125,4.479551315307617,8.480262756347656,-2.3032219409942627
1790333696168378400,6.62837841796875,4.613626480102539,8.480262756347656,-2.4396915435791016
1790333696184876300,6.644876220703125,4.32871675491333,8.516175270080566,-2.3487119674682617
1790333696201341000,6.6613408203125,4.220977783203125,8.583212852478027,-2.4444799423217773
1790333696217833000,6.6778330078125,3.9193081855773926,8.571242332458496,-2.4899697303771973
1790333696234354000,6.69435400390625,3.624821424484253,8.422801971435547,-2.410961151123047
1790333696250844400,6.710844482421875,3.603273630142212,8.372523307800293,-2.5258827209472656
1790333696267384600,6.727384521484375,3.4380736351013184,8.35336971282959,-2.4013843536376953
1790333696283840300,6.74384033203125,3.5218706130981445,8.461109161376953,-2.319981336593628
1790333696300374300,6.760374267578125,3.488351821899414,8.44195556640625,-2.1978771686553955
1790333696316843000,6.776843017578125,3.6750996112823486,8.427590370178223,-2.3056161403656006
1790333696333336800,6.7933369140625,3.801992416381836,8.592789649963379,-2.343923568725586
1790333696349805000,6.80980517578125,3.928884983062744,8.506598472595215,-2.1164743900299072
1790333696366239200,6.8262392578125,4.1611223220825195,8.925583839416504,-2.3343467712402344
1790333696382701600,6.84270166015625,4.027047157287598,9.047688484191895,-2.1092917919158936
1790333696399162000,6.859162109375,4.225766181945801,9.160215377807617,-2.0470423698425293
1790333696415624400,6.87562451171875,4.201824188232422,8.9064302444458,-1.625662922859192
1790333696432109800,6.89210986328125,4.72376012802124,8.616731643676758,-1.5753847360610962
1790333696448578000,6.908578125,4.879383087158203,8.358158111572266,-1.3862427473068237
1790333696465048000,6.925048095703125,5.006275653839111,8.341399192810059,-1.4652514457702637
1790333696481553000,6.941552978515625,4.680664539337158,8.437167167663574,-1.5490485429763794
1790333696498022100,6.958022216796875,4.230554580688477,8.341399192810059,-1.479616641998291
1790333696514548500,6.974548583984375,3.950432777404785,8.789113998413086,-1.800439715385437
1790333696531046700,6.991046630859375,3.5673606395721436,9.10993766784668,-1.678335428237915
1790333696547579100,7.0075791015625,3.579331636428833,9.425971984863281,-1.742978811264038
1790333696564044000,7.0240439453125,3.6367924213409424,9.162610054016113,-1.335964560508728
1790333696580509400,7.040509521484375,4.302380561828613,8.949525833129883,-1.623268723487854
1790333696596983800,7.05698388671875,4.302380561828613,8.552088737487793,-1.7501614093780518
1790333696613425200,7.073425048828125,4.63517427444458,8.058882713317871,-2.4133553504943848
1790333696629951500,7.089951416015625,4.505887508392334,7.977479934692383,-2.8658595085144043
1790333696646427100,7.10642724609375,4.144362926483154,8.22887134552002,-3.3279404640197754
1790333696662912300,7.122912353515625,3.406949043273926,8.482656478881836,-3.098097085952759
1790333696679412200,7.139412109375,3.421314239501953,8.382100105285645,-2.6024973392486572
1790333696695858400,7.1558583984375,3.7469255924224854,8.554482460021973,-2.4229321479797363
1790333696712384300,7.17238427734375,3.9456443786621094,8.396465301513672,-2.0422539710998535
1790333696728877800,7.1888779296875,4.489128112792969,8.525752067565918,-2.300827741622925
1790333696745370000,7.2053701171875,4.2975921630859375,8.542511940002441,-2.518700122833252
1790333696761878300,7.221878173828125,3.8091750144958496,8.71489429473877,-2.896984100341797
1790333696778357800,7.238357666015625,3.3710360527038574,8.671798706054688,-2.5953147411346436
1790333696794852600,7.2548525390625,3.6990416049957275,8.7484130859375,-2.5306711196899414
1790333696811308300,7.271308349609375,3.957615375518799,8.556877136230469,-2.1954829692840576
1790333696827773400,7.2877734375,4.321534156799316,8.238448143005371,-2.456450939178467
1790333696844232200,7.304232177734375,4.467580318450928,8.336610794067383,-3.203441858291626
1790333696860708000,7.3207080078125,4.079719543457031,8.554482460021973,-3.339911460876465
1790333696877184800,7.337184814453125,3.794809579849243,8.616731643676758,-3.045424461364746
1790333696893662500,7.353662353515625,3.7708675861358643,8.56645393371582,-2.5115175247192383
1790333696910185200,7.370185302734375,4.060565948486328,8.537723541259766,-2.382230758666992
1790333696926687700,7.386687744140625,4.01268196105957,8.628703117370605,-2.209848165512085
1790333696943164400,7.403164306640625,3.7445313930511475,8.655038833618164,-2.03507137298584
1790333696959656400,7.419656494140625,3.40216064453125,8.343792915344238,-1.778891921043396
1790333696976145000,7.436144775390625,3.157952070236206,7.884106159210205,-2.0614075660705566
1790333696992636400,7.452636474609375,3.066972494125366,7.6111674308776855,-2.564189910888672
1790333697009145600,7.4691455078125,3.2609026432037354,7.568071365356445,-2.8850131034851074
1790333697025609000,7.48560888671875,3.4189200401306152,7.836222171783447,-2.875436305999756
1790333697042124800,7.502124755859375,3.4979286193847656,8.109161376953125,-2.7006595134735107
1790333697058585300,7.51858544921875,3.9001545906066895,8.578424453735352,-2.494758129119873
1790333697075011000,7.535010986328125,4.4508209228515625,9.059659004211426,-1.8100165128707886
1790333697091509200,7.55150927734375,4.9799394607543945,9.074024200439453,-0.7565677165985107
1790333697107979300,7.567979248046875,6.0405707359313965,8.643068313598633,-0.33039984107017517
1790333697124520700,7.584520751953125,6.507440090179443,8.580819129943848,-0.6033388376235962
1790333697141002200,7.601002197265625,6.655880928039551,8.497021675109863,-0.8403648138046265
1790333697157497900,7.617497802734375,6.643909931182861,8.209717750549316,-0.7469909191131592
1790333697174006000,7.634006103515625,6.775590896606445,8.291120529174805,-1.338358759880066
1790333697190462700,7.650462646484375,6.385335922241211,8.26239013671875,-1.7836803197860718
1790333697206928600,7.6669287109375,5.928043365478516,7.953537940979004,-1.8052281141281128
1790333697223400400,7.683400390625,5.698200225830078,7.60637903213501,-2.145204782485962
1790333697239846100,7.69984619140625,5.1810526847839355,7.534552574157715,-2.647987127304077
1790333697256321500,7.716321533203125,4.46518611907959,7.898471355438232,-3.160346269607544
1790333697272767500,7.732767578125,3.2609026432037354,8.092401504516602,-3.2824504375457764
1790333697289327600,7.74932763671875,2.736572504043579,8.245630264282227,-3.485957622528076
1790333697305800000,7.765800048828125,2.494758129119873,8.13789176940918,-3.7253777980804443
1790333697322272300,7.782272216796875,2.978386878967285,7.927201747894287,-3.512293815612793
1790333697338751500,7.79875146484375,4.050989151000977,7.527369976043701,-3.1244332790374756
1790333697355199200,7.81519921875,5.2049946784973145,7.762001991271973,-2.959233283996582
1790333697371731000,7.83173095703125,5.585672378540039,7.838616371154785,-2.585737943649292
1790333697388185000,7.84818505859375,5.6670756340026855,7.826645374298096,-1.9943699836730957
1790333697404684300,7.864684326171875,5.7772088050842285,7.7213006019592285,-1.6543933153152466
1790333697421191700,7.881191650390625,5.5329999923706055,7.987056732177734,-1.7764976024627686
1790333697437642800,7.897642822265625,5.104437828063965,8.051700592041016,-1.8698714971542358
1790333697454175000,7.914175048828125,4.793191909790039,8.027758598327637,-1.8794482946395874
1790333697470668800,7.930668701171875,4.649539470672607,7.766790390014648,-1.9704279899597168
1790333697487166000,7.947166015625,4.714183330535889,7.7883381843566895,-2.585737943649292
1790333697503651600,7.963651611328125,4.381389141082764,7.726089000701904,-3.047818660736084
1790333697520098000,7.98009814453125,4.41969633102417,7.558494567871094,-3.600879430770874
1790333697536629000,7.99662890625,4.496310710906982,7.340622425079346,-3.713406801223755
1790333697553138400,8.013138427734376,5.154716491699219,7.292738437652588,-3.823540210723877
1790333697569619200,8.029619140625,5.839457988739014,7.529764175415039,-3.912125587463379
1790333697586114300,8.0461142578125,5.947196960449219,7.6111674308776855,-3.490746021270752
1790333697602610400,8.0626103515625,5.868188381195068,7.481880187988281,-3.090914487838745
1790333697619111700,8.079111572265624,5.827486991882324,7.232883453369141,-3.023876667022705
1790333697635605200,8.095605224609375,6.042964935302734,7.261613845825195,-3.423708438873291
1790333697652120600,8.11212060546875,5.671864032745361,7.481880187988281,-3.4404678344726562
1790333697668593200,8.12859326171875,4.817133903503418,7.778761386871338,-3.1459810733795166
1790333697685065200,8.145065185546875,4.587290287017822,7.716512203216553,-2.7940332889556885
1790333697701559600,8.1615595703125,4.517858505249023,7.55131196975708,-2.827552318572998
1790333697718055400,8.178055419921876,4.371812343597412,7.931990146636963,-3.0813376903533936
1790333697734523100,8.194523193359375,3.801992416381836,8.480262756347656,-2.5450363159179688
1790333697751006500,8.21100634765625,3.7397429943084717,8.887276649475098,-1.5514427423477173
1790333697767479600,8.2274794921875,4.639962673187256,8.439560890197754,-0.8427590131759644
1790333697784006700,8.244006591796875,5.341464042663574,8.003816604614258,-1.1540051698684692
1790333697800441900,8.26044189453125,5.427655220031738,7.496245384216309,-1.3503297567367554
1790333697816919300,8.276919189453125,5.214571475982666,7.704541206359863,-1.6974890232086182
1790333697833420300,8.293420166015625,4.580107688903809,7.716512203216553,-1.2689268589019775
1790333697849890000,8.30989013671875,4.094084739685059,6.794744491577148,-1.8291701078414917
1790333697866426000,8.326426025390624,4.02465295791626,6.19379997253418,-2.8419175148010254
1790333697882880300,8.34288037109375,3.821146011352539,6.1985883712768555,-4.134786128997803
1790333697899355100,8.359355224609375,2.5737667083740234,6.71334171295166,-4.728548526763916
1790333697915854300,8.375854248046876,2.6647465229034424,6.308721542358398,-4.616020679473877
1790333697932302300,8.39230224609375,4.63517427444458,5.343858242034912,-4.817133903503418
1790333697948790500,8.40879052734375,6.095637321472168,4.833893299102783,-5.614402770996094
1790333697965255200,8.425255126953125,7.438784599304199,4.630385875701904,-6.5696892738342285
1790333697981696300,8.4416962890625,7.800309181213379,4.41969633102417,-6.722918510437012
1790333697998194200,8.458194091796875,7.577648162841797,4.199429988861084,-6.493074893951416
1790333698014665200,8.474665283203125,7.491456985473633,3.976768970489502,-6.593631267547607
1790333698031162000,8.491162109375,7.582436561584473,3.890577793121338,-6.763619899749756
1790333698047667200,8.507667236328125,7.4555439949035645,3.8355112075805664,-6.876147270202637
1790333698064203300,8.524203369140626,7.5848307609558105,3.687070608139038,-6.2847795486450195
1790333698080677400,8.540677490234375,8.255207061767578,3.1531636714935303,-4.917690277099609
1790333698097118000,8.557117919921875,9.126696586608887,2.9281086921691895,-3.471592426300049
1790333698113643500,8.5736435546875,9.485827445983887,3.6128504276275635,-3.620033025741577
1790333698130172000,8.590171875,8.949525833129883,4.173093795776367,-4.271255970001221
1790333698146561000,8.60656103515625,7.766790390014648,4.1395745277404785,-4.553771495819092
1790333698163046400,8.62304638671875,6.189011573791504,4.082113742828369,-4.63517427444458
1790333698179496700,8.63949658203125,6.071695327758789,4.455609321594238,-4.23773717880249
1790333698196020200,8.656020263671875,6.344634532928467,4.867412090301514,-4.383783340454102
1790333698212521500,8.672521484375,6.694188117980957,5.078101634979248,-4.7620673179626465
1790333698228988700,8.68898876953125,6.868964672088623,5.298368453979492,-5.772420406341553
1790333698245473300,8.705473388671875,7.003039836883545,5.355829238891602,-7.496245384216309
1790333698261945300,8.7219453125,6.169857978820801,4.807557106018066,-7.934384346008301
1790333698278495700,8.738495849609375,6.2632317543029785,4.129997730255127,-6.294356346130371
1790333698294942200,8.754942138671876,7.493851184844971,4.101267337799072,-5.34625244140625
1790333698311428600,8.7714287109375,8.197746276855469,4.51067590713501,-4.932055473327637
1790333698327911000,8.787910888671876,8.461109161376953,4.704606533050537,-4.448426723480225
1790333698344361700,8.80436181640625,7.292738437652588,4.639962673187256,-4.132391929626465
1790333698360837600,8.820837646484375,6.665457725524902,4.520252704620361,-3.6750996112823486
1790333698377290200,8.837290283203124,6.567295074462891,4.5609540939331055,-2.4612393379211426
1790333698393799400,8.85379931640625,6.955155849456787,4.927267074584961,-0.9911994934082031
1790333698410281200,8.87028125,7.015010833740234,5.4228668212890625,-0.18914192914962769
1790333698426742500,8.886742431640625,7.017405033111572,5.540182590484619,-0.26336219906806946
1790333698443220500,8.903220458984375,7.151480674743652,5.43723201751709,-0.6943184733390808
1790333698459691800,8.91969189453125,7.105990409851074,5.274426460266113,-1.2066776752471924
1790333698476168000,8.93616796875,7.079654216766357,5.080495834350586,-1.161187767982483
1790333698492654300,8.952654296875,6.955155849456787,5.16429328918457,-0.811634361743927
1790333698509102800,8.969102783203125,7.745242595672607,5.583278179168701,-0.11971008777618408
1790333698525637000,8.98563720703125,8.501810073852539,5.8657941818237305,0.47644615173339844
1790333698542086700,9.002086669921875,8.5903959274292,6.0405707359313965,1.256955862045288
1790333698558572800,9.01857275390625,7.979874134063721,6.090848922729492,1.4700398445129395
1790333698575047400,9.03504736328125,7.101202011108398,6.2392897605896,1.2186486721038818
1790333698591491800,9.051491943359375,6.720524311065674,6.636727333068848,1.2737152576446533
1790333698607993600,9.06799365234375,7.103596210479736,6.988674640655518,1.534683346748352
1790333698624445200,9.084445068359376,7.800309181213379,7.297526836395264,2.0398597717285156
1790333698640918000,9.10091796875,7.960720539093018,7.230489253997803,2.3319525718688965
1790333698657390000,9.11739013671875,7.845798969268799,7.275979042053223,2.403778553009033
1790333698673853000,9.13385302734375,7.453149795532227,7.364564418792725,2.4229321479797363
1790333698690354000,9.15035400390625,7.252037048339844,7.266402244567871,2.319981336593628
1790333698706857500,9.166857421875,7.627926826477051,7.359776020050049,2.1787235736846924
1790333698723298000,9.183298095703124,8.04930591583252,7.252037048339844,1.86508309841156
1790333698739823400,9.1998232421875,8.339004516601562,6.852205276489258,1.292868971824646
1790333698756322000,9.216322021484375,8.449137687683105,6.540958881378174,0.8403648138046265
1790333698772818000,9.23281787109375,8.341399192810059,6.478709697723389,1.1013327836990356
1790333698789258200,9.24925830078125,7.793126583099365,6.519411087036133,1.6112977266311646
1790333698805709600,9.26570947265625,7.117961883544922,6.710947513580322,1.8555063009262085
1790333698822183700,9.28218359375,6.936002254486084,6.828263282775879,1.5969325304031372
1790333698838627000,9.298626953125,6.411672115325928,6.670246124267578,1.4053963422775269
1790333698855122700,9.315122802734376,6.495469093322754,6.619967937469482,1.2880805730819702
1790333698871570400,9.3315703125,5.702988624572754,7.467514991760254,2.3558945655822754
1790333698888047600,9.348047607421876,6.186617374420166,6.421248912811279,0.849941611289978
1790333698904527600,9.364527587890626,5.7987565994262695,6.897695064544678,1.072602391242981
1790333698920980700,9.380980712890626,6.9910688400268555,7.237671852111816,1.0989385843276978
1790333698937504300,9.397504150390626,7.943961143493652,7.161057472229004,0.9074024558067322
1790333698953968400,9.413968505859375,9.241618156433105,6.773196697235107,0.8212111592292786
1790333698970432300,9.430432373046875,9.667786598205566,6.102819919586182,0.23702596127986908
1790333698986915600,9.44691552734375,9.205705642700195,5.580883979797363,-0.569819986820221
1790333699003355400,9.46335546875,8.38449478149414,5.17626428604126,-1.4173674583435059
1790333699019877600,9.479877685546874,8.169015884399414,5.123591423034668,-1.3431471586227417
1790333699036317700,9.496317626953125,8.01339340209961,5.018246650695801,-0.8020575642585754
1790333699052799200,9.51279931640625,7.931990146636963,6.385335922241211,0.33997663855552673
1790333699069213200,9.529213134765625,8.233659744262695,6.081272125244141,0.27054479718208313
1790333699085656300,9.54565625,8.13789176940918,5.748478412628174,-0.7852981686592102
1790333699102132200,9.56213232421875,7.402871608734131,7.333439826965332,0.6153098344802856
1790333699118575400,9.578575439453125,6.754043102264404,7.173028469085693,1.482010841369629
1790333699135079000,9.595078857421875,6.6127848625183105,6.447585105895996,0.1173158809542656
1790333699151552000,9.611552001953125,5.985504150390625,6.461950302124023,-0.8020575642585754
1790333699168004900,9.6280048828125,5.750872611999512,6.983886241912842,-0.08140286058187485
1790333699184474000,9.64447412109375,5.995080947875977,6.821080684661865,0.08140286058187485
1790333699200942000,9.660942138671874,6.189011573791504,6.1985883712768555,-0.040701430290937424
1790333699217410000,9.67741015625,6.268020153045654,5.7341132164001465,-0.10055647045373917
1790333699233862400,9.6938623046875,7.01979923248291,5.705382823944092,0.07182604819536209
1790333699250301400,9.710301513671874,9.033323287963867,5.937620162963867,-0.9289502501487732
1790333699266823400,9.726823486328126,9.469067573547363,5.990292549133301,-1.1300631761550903
1790333699283259400,9.74325927734375,10.228029251098633,5.750872611999512,-1.1061211824417114
1790333699299764000,9.759763916015626,10.453084945678711,5.686229228973389,-0.8451532125473022
1790333699316264700,9.7762646484375,8.638279914855957,5.746084213256836,-0.40462008118629456
1790333699332734700,9.792734619140624,7.1251444816589355,5.95677375793457,-0.569819986820221
1790333699349228000,9.80922802734375,6.550535678863525,5.758055210113525,-0.6033388376235962
1790333699365674200,9.82567431640625,5.959167957305908,5.178658485412598,1.2018892765045166
1790333699382165800,9.842165771484375,6.251260757446289,5.729324817657471,1.699883222579956
1790333699398633500,9.858633544921876,7.266402244567871,6.279991149902344,1.625662922859192
1790333699415073300,9.8750732421875,7.848193168640137,6.04775333404541,1.05105459690094
1790333699431566600,9.891566650390626,7.55131196975708,5.74129581451416,0.19393034279346466
1790333699448027100,9.908027099609376,6.627150535583496,5.66228723526001,-0.9983820915222168
1790333699464490800,9.92449072265625,7.0126166343688965,5.705382823944092,-1.7310078144073486
1790333699480994600,9.94099462890625,7.343016624450684,5.451597213745117,-2.5546131134033203
1790333699497462800,9.957462890625,7.587224960327148,4.797980308532715,-2.6886885166168213
1790333699513980000,9.97397998046875,8.65982723236084,4.180276393890381,-1.6519991159439087
1790333699530445800,9.99044580078125,10.125079154968262,4.51067590713501,-0.33279404044151306
1790333699546891800,10.006891845703125,10.922348022460938,4.592078685760498,-0.4644751250743866
1790333699563413200,10.023413330078125,12.710816383361816,4.721365928649902,-1.1516109704971313
1790333699579884500,10.039884521484375,13.194445610046387,4.431667327880859,-0.9552865028381348
1790333699596365600,10.056365478515625,10.524910926818848,4.175487995147705,-0.5315127968788147
1790333699612841500,10.072841552734374,8.123526573181152,4.321534156799316,-0.24420857429504395
1790333699629335000,10.0893349609375,7.0317702293396,4.759673118591309,-0.7852981686592102
1790333699645801500,10.105801513671874,7.189787864685059,4.285621166229248,-1.702277421951294
1790333699662245000,10.1222451171875,6.004657745361328,4.113238334655762,-1.8267759084701538
1790333699678754800,10.1387548828125,5.152322292327881,4.8722004890441895,-1.2473790645599365
1790333699695248400,10.155248291015624,4.216189384460449,6.761225700378418,0.1388636976480484
1790333699711712300,10.171712158203125,2.4468741416931152,7.067683219909668,-0.181959331035614
1790333699728187000,10.188186767578125,8.463502883911133,5.396530628204346,1.5969325304031372
1790333699744649200,10.204649169921876,9.682151794433594,4.367023944854736,2.346317768096924
1790333699761198600,10.221198486328126,9.476250648498535,4.299986362457275,2.360682964324951
1790333699777666300,10.237666259765625,8.65743350982666,4.513070106506348,3.4739866256713867
1790333699794130700,10.254130615234375,6.780379295349121,4.759673118591309,2.8443117141723633
1790333699810602200,10.270602294921876,6.3949127197265625,4.716577529907227,0.9145850539207458
1790333699827040500,10.28704052734375,7.951143741607666,4.78122091293335,-1.867477297782898
1790333699843562800,10.303562744140624,7.2568254470825195,4.182670593261719,-1.0007762908935547
1790333699860044500,10.32004443359375,7.5632829666137695,4.02465295791626,1.0271124839782715
1790333699876379100,10.336379150390625,9.892841339111328,4.474762916564941,3.1747114658355713
1790333699892844300,10.35284423828125,10.019734382629395,5.331887245178223,3.0310592651367188
1790333699909321500,10.369321533203125,10.776301383972168,5.430049419403076,1.9919757843017578
1790333699925806600,10.385806640625,10.54645824432373,5.272032260894775,0.7948749661445618
1790333699942303200,10.40230322265625,10.034099578857422,4.455609321594238,-0.0933738648891449
1790333699958766300,10.418766357421875,8.667010307312012,4.223371982574463,-0.849941611289978
1790333699975238000,10.43523779296875,8.767566680908203,4.086902141571045,-1.9752163887023926
1790333699991709200,10.451709228515625,4.338293552398682,4.434061527252197,-1.4245500564575195
1790333700008195600,10.468195556640625,3.07415509223938,5.453991413116455,-1.4915876388549805
1790333700024636000,10.484635986328126,6.13633918762207,4.568136692047119,1.8626888990402222
1790333700041110300,10.5011103515625,10.529699325561523,5.604825973510742,2.3367409706115723
1790333700057545200,10.517545166015625,10.520122528076172,6.368576526641846,0.8427590131759644
1790333700074015700,10.534015625,12.172121047973633,4.367023944854736,2.7222073078155518
1790333700090508500,10.550508544921875,11.54244613647461,4.261679172515869,0.9265560507774353
1790333700106957800,10.566957763671875,9.785101890563965,4.378994941711426,-0.5027823448181152
1790333700123492000,10.5834921875,8.662221908569336,4.331110954284668,-0.17956513166427612
1790333700139992800,10.599992919921876,8.889671325683594,4.400542736053467,0.4836287498474121
1790333700156433200,10.61643310546875,9.172186851501465,4.168305397033691,-0.6727706789970398
1790333700172930800,10.632930908203125,9.892841339111328,3.9647979736328125,-1.5849615335464478
1790333700189399000,10.64939892578125,9.718064308166504,3.201047658920288,-2.3247697353363037
1790333700205868300,10.665868408203124,7.285555839538574,3.3423056602478027,-2.6001031398773193
1790333700222373600,10.68237353515625,6.675034523010254,3.8977603912353516,-0.912190854549408
1790333700238814700,10.698814697265625,8.312667846679688,4.764461517333984,-1.280897855758667
1790333700255345200,10.71534521484375,9.86650562286377,4.8267107009887695,-1.6352397203445435
1790333700271782000,10.731781982421875,9.607931137084961,4.548983097076416,-0.7637503147125244
1790333700288265200,10.74826513671875,7.393294811248779,3.7852327823638916,0.31603461503982544
1790333700304763100,10.76476318359375,3.912125587463379,4.376600742340088,2.980781078338623
1790333700321207800,10.781207763671874,6.921637058258057,5.882553577423096,0.629675030708313
1790333700337697000,10.797697021484375,9.279925346374512,6.780379295349121,-1.2497732639312744
1790333700354151000,10.81415087890625,9.828198432922363,5.638344764709473,-0.24899697303771973
1790333700370675700,10.83067578125,9.332598686218262,4.017470359802246,1.8291701078414917
1790333700387180000,10.847179931640625,7.745242595672607,3.5434184074401855,0.5482721924781799
1790333700403634400,10.863634521484375,7.268796443939209,3.708618402481079,-3.2968156337738037
1790333700420128500,10.88012841796875,7.0126166343688965,3.5434184074401855,-2.896984100341797
1790333700436596500,10.896596435546876,8.44434928894043,3.3925838470458984,0.2968810200691223
1790333700453062100,10.913062255859375,9.344569206237793,3.6391866207122803,0.6631938815116882
1790333700469573400,10.929573486328126,8.281543731689453,4.632780075073242,0.7326257228851318
1790333700486042400,10.94604248046875,6.943184852600098,4.027047157287598,-0.20111294090747833
1790333700502585000,10.962585205078126,5.937620162963867,3.8570590019226074,-0.5171475410461426
1790333700519024400,10.9790244140625,5.588066577911377,3.801992416381836,-1.0247182846069336
1790333700535520500,10.9955205078125,5.92325496673584,4.065354347229004,-0.7876923680305481
1790333700551991000,11.011990966796875,8.054094314575195,3.5889084339141846,-0.48602294921875
1790333700568426000,11.028426025390624,8.592789649963379,3.450044631958008,-1.5753847360610962
1790333700584946000,11.04494580078125,7.838616371154785,3.383007049560547,-1.314416766166687
1790333700601423400,11.06142333984375,7.400477409362793,2.7030537128448486,-1.1635819673538208
1790333700617913000,11.0779130859375,5.822698593139648,2.8107926845550537,-2.8658595085144043
1790333700634397700,11.094397705078125,3.624821424484253,2.698265314102173,-2.33913516998291
1790333700650872800,11.110872802734375,2.691082715988159,3.383007049560547,-2.669534921646118
1790333700667388400,11.127388427734376,2.0398597717285156,3.313575267791748,-2.9879636764526367
1790333700683851800,11.143851806640624,3.2297780513763428,2.628833532333374,-1.968033790588379
1790333700700315100,11.160315185546875,3.6296098232269287,3.3255462646484375,-1.4413094520568848
1790333700716782000,11.176781982421875,3.023876667022705,3.490746021270752,-0.8571242094039917
1790333700733281300,11.19328125,5.39174222946167,2.3343467712402344,-2.008735179901123
1790333700749798000,11.2097978515625,6.809109687805176,2.140416383743286,-4.197035789489746
1790333700766295800,11.2262958984375,7.869740962982178,1.5729905366897583,-2.9305028915405273
1790333700782764300,11.242764404296874,10.668562889099121,1.5897499322891235,0.5363011956214905
1790333700799218400,11.259218505859375,10.053253173828125,2.121262788772583,-0.0454898327589035
1790333700815688400,11.2756884765625,9.871294021606445,0.6943184733390808,1.2617442607879639
1790333700832157000,11.292156982421876,12.303802490234375,0.37828385829925537,2.7964274883270264
1790333700848603000,11.308602783203124,13.42668342590332,1.2234370708465576,3.9001545906066895
1790333700865127000,11.325126953125,11.372458457946777,2.229001760482788,3.818751811981201
1790333700881630000,11.3416298828125,9.514557838439941,3.40216064453125,1.9943699836730957
1790333700898071300,11.3580712890625,12.36365795135498,3.268085241317749,2.5737667083740234
1790333700914569700,11.37456982421875,11.322179794311523,2.8658595085144043,4.58968448638916
1790333700931019500,11.39101953125,10.168174743652344,2.1068975925445557,6.4595561027526855
1790333700947522600,11.4075224609375,12.145785331726074,1.0079588890075684,6.794744491577148
1790333700964036600,11.42403662109375,14.36521053314209,-0.09816227108240128,5.2672438621521
1790333700980513000,11.440512939453125,16.34760856628418,-0.6512228846549988,4.216189384460449
1790333700997046500,11.457046630859375,15.442601203918457,-1.1803414821624756,3.8331170082092285
1790333701013491200,11.4734912109375,12.722787857055664,-2.2888567447662354,3.222595453262329
1790333701029974500,11.489974609375,9.217676162719727,-3.248931646347046,2.4157495498657227
1790333701046483500,11.5064833984375,7.845798969268799,-3.5936968326568604,1.9297266006469727
1790333701062867000,11.522866943359375,5.3582234382629395,-4.443638324737549,2.7246015071868896
1790333701079278600,11.539278564453125,5.027823448181152,-5.1331682205200195,3.069366693496704
1790333701095767000,11.55576708984375,6.50025749206543,-5.980715751647949,2.43011474609375
1790333701112237800,11.57223779296875,8.216899871826172,-6.835445880889893,1.802833914756775
1790333701128690700,11.588690673828125,10.369287490844727,-9.710882186889648,0.9265560507774353
1790333701145127400,11.60512744140625,12.756306648254395,-15.696386337280273,-7.8529815673828125
1790333701161517800,11.621517822265625,9.344569206237793,-0.08858546614646912,-4.898536682128906
1790333701177955300,11.637955322265626,15.847221374511719,-6.038176536560059,2.7533318996429443
1790333701194418200,11.654418212890626,15.485696792602539,-8.882488250732422,4.173093795776367
1790333701210866400,11.670866455078125,16.508020401000977,-5.762843608856201,0.6512228846549988
1790333701227310000,11.68731005859375,11.4849853515625,-5.082890033721924,2.126051187515259
1790333701243782000,11.703781982421875,8.777143478393555,-5.018246650695801,1.4413094520568848
1790333701260224500,11.720224609375,6.3302693367004395,-3.509899616241455,1.4245500564575195
1790333701276681700,11.736681640625,1.7956513166427612,-2.561795711517334,0.24899697303771973
1790333701293122600,11.75312255859375,-0.5003881454467773,-0.950498104095459,1.2330138683319092
1790333701309595600,11.769595703125,4.01268196105957,-1.4173674583435059,0.7661445140838623
1790333701326054100,11.78605419921875,6.564900875091553,-2.296039342880249,1.9608511924743652
1790333701342496000,11.80249609375,10.84094524383545,-3.0597896575927734,3.138798475265503
1790333701358958800,11.818958740234375,13.053187370300293,-3.2752678394317627,2.9448680877685547
1790333701375397600,11.835397705078124,14.628572463989258,-3.7876269817352295,2.604891538619995
1790333701391835100,11.851835205078125,7.8745293617248535,-9.246406555175781,-8.968679428100586
1790333701408289800,11.868289794921875,14.676456451416016,-3.1507694721221924,3.44765043258667
1790333701424763100,11.88476318359375,10.050858497619629,-4.946420669555664,4.1156325340271
1790333701441205800,11.901205810546875,7.417236804962158,-5.039794445037842,1.6112977266311646
1790333701457645300,11.917645263671876,5.331887245178223,-5.729324817657471,0.11971008777618408
1790333701474081800,11.934081787109376,5.999869346618652,-4.592078685760498,0.15083470940589905
1790333701490547000,11.950546875,3.7421371936798096,-6.619967937469482,-0.8954314589500427
1790333701506987300,11.9669873046875,10.644620895385742,-6.696582317352295,2.4803929328918457
1790333701523446300,11.9834462890625,6.564900875091553,-9.160215377807617,-4.6950297355651855
1790333701539885800,11.9998857421875,9.337387084960938,-4.618414878845215,0.7493851184844971
1790333701556283000,12.016282958984375,6.596025466918945,-7.354987621307373,0.27054479718208313
1790333701572725200,12.032725341796874,9.198522567749023,-6.777985095977783,2.056619167327881
1790333701589170200,12.049170166015625,7.838616371154785,-4.95120906829834,1.1180921792984009
1790333701605629700,12.065629638671876,8.62630844116211,-5.142745018005371,1.094150185585022
1790333701622076400,12.082076416015624,12.066776275634766,-2.0470423698425293,-1.4987702369689941
1790333701638521300,12.098521240234374,12.876016616821289,-0.706289529800415,0.33039984107017517
1790333701654966300,12.11496630859375,8.65743350982666,0.21787235140800476,-0.5650315880775452
1790333701671414800,12.131414794921875,16.259023666381836,0.009576806798577309,0.9816226959228516
1790333701687864300,12.1478642578125,-12.627019882202148,-30.32256507873535,-54.07783508300781
1790333701704317200,12.164317138671874,17.951725006103516,-13.639766693115234,9.749189376831055
1790333701720766500,12.180766357421875,21.665130615234375,-9.93593692779541,3.804386615753174
1790333701737244400,12.197244384765625,10.091560363769531,-20.0969295501709,-9.440337181091309
1790333701753692400,12.2136923828125,-12.880805015563965,-22.433670043945312,7.072471618652344
1790333701770140000,12.230139892578125,9.406818389892578,-15.808914184570312,0.0454898327589035
1790333701786583000,12.2465830078125,4.757278919219971,-8.69334602355957,1.4532804489135742
1790333701803029200,12.263029296875,3.885789394378662,-10.342951774597168,-3.3925838470458984
1790333701819357200,12.279357177734376,32.585086822509766,-2.276885747909546,1.7932571172714233
1790333701835802600,12.295802734375,-1.8483237028121948,-7.50582218170166,-1.1563993692398071
1790333701852248800,12.312248779296874,3.3231520652770996,-5.521028995513916,-1.9776105880737305
1790333701868695000,12.328695068359375,9.27034854888916,-1.7908629179000854,0.07422025501728058
1790333701884150000,12.34414990234375,5.434837818145752,-14.022839546203613,-18.339584350585938
1790333701900452000,12.3604521484375,-7.85537576675415,-9.53849983215332,0.4429273009300232
1790333701915777800,12.37577783203125,3.177105665206909,-6.236895561218262,-2.363077163696289
1790333701932228600,12.392228515625,6.531382083892822,-4.881777286529541,-1.8124107122421265
1790333701948677600,12.408677734375,3.0142998695373535,-6.447585105895996,-2.920926094055176
1790333701965130500,12.425130615234375,3.751713991165161,-8.429984092712402,-0.07661445438861847
1790333701981615000,12.441614990234376,6.471527099609375,-7.630321025848389,-2.099714994430542
1790333701998068000,12.45806787109375,2.322375535964966,-9.433155059814453,-0.33758243918418884
1790333702014521600,12.474521484375,9.904812812805176,-9.524134635925293,-3.550601005554199
1790333702030972000,12.490971923828125,5.504269599914551,-9.002198219299316,-1.192312479019165
1790333702047427600,12.507427490234376,5.284003257751465,-10.69489860534668,-1.3239935636520386
1790333702063912400,12.523912353515625,6.435614109039307,-9.555258750915527,-1.625662922859192
1790333702080363300,12.54036328125,4.819528102874756,-6.538564682006836,-0.9313444495201111
1790333702096886000,12.556885986328124,2.4420857429504395,-9.227252960205078,0.5171475410461426
1790333702113334300,12.573334228515625,2.8155810832977295,-8.123526573181152,0.7541735172271729
1790333702129780200,12.5897802734375,7.204153060913086,-9.186552047729492,-1.3287819623947144
1790333702146226700,12.606226806640626,2.499546527862549,-10.381258964538574,0.23702596127986908
1790333702162701300,12.622701416015625,7.812280178070068,-9.725247383117676,0.6919242739677429
1790333702179146800,12.639146728515625,4.067748546600342,-10.072406768798828,-0.7852981686592102
1790333702195593000,12.655593017578125,10.290278434753418,-2.0805611610412598,-4.1395745277404785
1790333702212038700,12.67203857421875,4.733336925506592,-14.506467819213867,0.2322375625371933
1790333702228537300,12.688537353515626,4.666299343109131,-9.239224433898926,-0.3016694188117981
1790333702244989200,12.7049892578125,2.298433542251587,-9.181763648986816,0.2801215946674347
1790333702261483000,12.72148291015625,4.843470096588135,-7.3885064125061035,-0.7086837291717529
1790333702277954300,12.737954345703125,5.003881454467773,-8.561665534973145,-0.011971008032560349
1790333702294436000,12.75443603515625,2.0590133666992188,-8.109161376953125,0.5554547905921936
1790333702310930700,12.7709306640625,7.287950038909912,-8.212111473083496,0.028730420395731926
1790333702327416800,12.787416748046875,4.2951979637146,-9.239224433898926,-0.7422025203704834
1790333702343911200,12.8039111328125,3.8953661918640137,-10.27591323852539,-1.048660397529602
1790333702360380000,12.8203798828125,4.086902141571045,-9.327810287475586,-0.6775590777397156
1790333702376831200,12.836831298828125,7.2783732414245605,-9.59835433959961,0.2944868206977844
1790333702393273000,12.853273193359374,2.406172752380371,-9.315838813781738,-0.828393816947937
1790333702409744000,12.869743896484374,8.528146743774414,-8.547300338745117,0.6991068720817566
1790333702426187300,12.886187255859374,5.947196960449219,-10.189722061157227,1.1085153818130493
1790333702442628600,12.902628662109375,2.9305028915405273,-11.736376762390137,-0.14604631066322327
1790333702459074300,12.91907421875,0.5722141861915588,-8.449137687683105,2.2840683460235596
1790333702475553800,12.9355537109375,3.6990416049957275,-8.461109161376953,-1.3263877630233765
1790333702492001300,12.952001220703124,0.035913024097681046,-8.367734909057617,-3.138798475265503
1790333702508450800,12.968450927734375,14.319720268249512,-4.6471452713012695,-1.158793568611145
1790333702524898800,12.98489892578125,6.742072105407715,-5.801150798797607,-1.0582371950149536
1790333702541354800,13.001354736328125,8.983044624328613,-7.357381820678711,-4.170699596405029
1790333702557804500,13.017804443359376,33.140541076660156,-4.223371982574463,0.3758896589279175
1790333702574254600,13.034254638671875,-15.162479400634766,-7.386112213134766,-10.132261276245117
1790333702590734800,13.05073486328125,-5.099649429321289,-7.989450931549072,-0.40940847992897034
1790333702607181800,13.067181884765626,5.971138954162598,-6.145915985107422,-1.2545616626739502
1790333702623628800,13.08362890625,5.698200225830078,-5.566518783569336,-2.070984363555908
1790333702640074500,13.100074462890625,7.2352776527404785,-9.097966194152832,-3.0358476638793945
1790333702656572000,13.116572021484375,7.484274387359619,-7.618350028991699,-2.7317841053009033
1790333702673019100,13.13301904296875,4.089296340942383,-6.995857238769531,-1.5131354331970215
1790333702689464800,13.14946484375,8.188169479370117,-8.96149730682373,-2.2673089504241943
1790333702705919700,13.165919677734376,6.555324077606201,-7.295132637023926,-2.3487119674682617
1790333702722420200,13.182420166015625,6.481103897094727,-6.100425720214844,-1.5107412338256836
1790333702738887200,13.19888720703125,7.091625213623047,-7.630321025848389,-1.6615760326385498
1790333702755331800,13.215331787109376,7.702147006988525,-5.365406036376953,-1.3215993642807007
1790333702771814000,13.23181396484375,8.106766700744629,-5.664681434631348,-1.9393033981323242
1790333702788288000,13.2482880859375,7.196970462799072,-6.191405773162842,-1.1875240802764893
1790333702804783600,13.26478369140625,7.438784599304199,-7.1921820640563965,-1.6663644313812256
1790333702821233000,13.28123291015625,4.752490520477295,-6.121973514556885,-1.601720929145813
1790333702837708000,13.2977080078125,7.797914981842041,-7.716512203216553,-2.1045033931732178
1790333702854157600,13.314157470703124,5.916072368621826,-7.47230339050293,-1.0773907899856567
1790333702870640600,13.330640625,7.254431247711182,-7.465120792388916,-2.233790159225464
1790333702887113500,13.347113525390625,4.757278919219971,-6.871358871459961,-1.1540051698684692
1790333702902542600,13.36254248046875,7.134721279144287,-7.728483200073242,-1.5466543436050415
1790333702919043000,13.37904296875,7.7643961906433105,-5.262455463409424,-1.1516109704971313
1790333702935500500,13.39550048828125,5.590460777282715,-6.248866558074951,-1.6136919260025024
1790333702951971000,13.41197119140625,6.102819919586182,-6.964732646942139,-1.335964560508728
1790333702968442600,13.428442626953125,6.962338447570801,-4.568136692047119,-0.9002198576927185
1790333702984894000,13.44489404296875,7.412448406219482,-6.196194171905518,-1.8363527059555054
1790333703001337300,13.46133740234375,7.115567684173584,-8.875306129455566,-0.9911994934082031
1790333703017819000,13.47781884765625,6.993463039398193,-6.698976516723633,-2.166752576828003
1790333703034267000,13.494266845703125,6.102819919586182,-5.839457988739014,-2.0638017654418945
1790333703050721000,13.510720947265625,7.805097579956055,-8.53532886505127,-2.6216509342193604
1790333703067132000,13.5271318359375,6.423643112182617,-6.44279670715332,-1.6543933153152466
1790333703083625700,13.543625732421875,7.965508937835693,-6.904877662658691,-1.6974890232086182
1790333703100094500,13.560094482421874,3.4117374420166016,-6.739677906036377,-1.5490485429763794
1790333703116534800,13.57653466796875,7.393294811248779,-9.220070838928223,-3.6343982219696045
1790333703133002500,13.59300244140625,8.432378768920898,-5.480327606201172,-1.3766659498214722
1790333703149482800,13.609482666015625,6.088454723358154,-6.84981107711792,-1.599326729774475
1790333703165950700,13.62595068359375,7.187393665313721,-7.328651428222656,-2.051830768585205
1790333703182262000,13.642261962890625,7.572859764099121,-4.462791919708252,-0.29209262132644653
1790333703198703600,13.65870361328125,8.31985092163086,-5.34625244140625,-2.2457611560821533
1790333703215168500,13.67516845703125,5.480327606201172,-8.097189903259277,-0.9409212470054626
1790333703231622100,13.6916220703125,7.618350028991699,-7.01979923248291,-2.078166961669922
1790333703248062700,13.708062744140625,4.49870491027832,-6.064512729644775,-1.6831238269805908
1790333703264503800,13.72450390625,8.032546997070312,-7.790732383728027,-2.5067291259765625
1790333703280951300,13.740951416015625,5.6910176277160645,-7.376535415649414,-1.4652514457702637
1790333703297421300,13.75742138671875,6.993463039398193,-7.347805023193359,-2.7293899059295654
1790333703313874700,13.773874755859374,3.869029998779297,-6.514622688293457,-1.316810965538025
1790333703330317300,13.7903173828125,7.2137298583984375,-8.200140953063965,-2.425326347351074
1790333703346758400,13.80675830078125,5.892130374908447,-8.101978302001953,-1.647210717201233
1790333703363240200,13.823240234375,7.0772600173950195,-7.240066051483154,-2.604891538619995
1790333703379679700,13.8396796875,6.186617374420166,-7.95832633972168,-1.5131354331970215
1790333703396164600,13.85616455078125,7.407660007476807,-6.624756336212158,-1.2521674633026123
1790333703412604700,13.872604736328125,9.41639518737793,-6.04775333404541,-0.871489405632019
1790333703429058000,13.88905810546875,6.576871871948242,-5.781997203826904,-1.0223240852355957
1790333703445510700,13.9055107421875,6.8593878746032715,-6.607996463775635,-0.9528923034667969
1790333703461979100,13.921979248046876,8.291120529174805,-5.595249176025391,-1.0821791887283325
1790333703478428200,13.93842822265625,8.003816604614258,-5.509057998657227,-0.8451532125473022
1790333703494894800,13.954894775390626,5.889736175537109,-7.7428483963012695,-0.569819986820221
1790333703511339000,13.971339111328126,7.910442352294922,-7.3023152351379395,-2.1092917919158936
1790333703527786200,13.9877861328125,5.781997203826904,-5.829881191253662,-1.5059528350830078
1790333703544227800,14.004227783203126,8.2312650680542,-8.99740982055664,-2.9041666984558105
1790333703560682200,14.02068212890625,6.572083473205566,-5.760449409484863,-1.1276689767837524
1790333703577179600,14.0371796875,8.216899871826172,-6.5050458908081055,-1.7693150043487549
1790333703593647400,14.0536474609375,4.654327869415283,-6.801927089691162,-1.2856862545013428
1790333703610090200,14.07009033203125,7.659051418304443,-8.403648376464844,-2.298433542251587
1790333703626558200,14.08655810546875,8.216899871826172,-5.535394191741943,-2.0470423698425293
1790333703643047400,14.10304736328125,5.942408561706543,-7.826645374298096,-0.3687070608139038
1790333703659517400,14.119517333984374,7.860164165496826,-7.548917770385742,-1.3048399686813354
1790333703675961300,14.13596142578125,4.108449935913086,-6.22731876373291,-1.6184803247451782
1790333703692427800,14.152427734375,6.823474884033203,-6.524199485778809,-1.9057846069335938
1790333703708895500,14.1688955078125,6.497863292694092,-6.962338447570801,-2.5091233253479004
1790333703725358600,14.185358642578125,8.125920295715332,-6.5050458908081055,-1.9153614044189453
1790333703741828600,14.20182861328125,5.6670756340026855,-7.433996200561523,-0.689530074596405
1790333703758297300,14.21829736328125,8.674192428588867,-6.502651691436768,-1.0223240852355957
1790333703774771700,14.234771728515625,6.801927089691162,-5.4659624099731445,-0.6775590777397156
1790333703791241700,14.25124169921875,5.683835029602051,-7.620744228363037,-2.006340980529785
1790333703807695400,14.2676953125,7.407660007476807,-7.287950038909912,-1.7980455160140991
1790333703824135400,14.284135498046876,6.931213855743408,-5.432443618774414,-0.993593692779541
1790333703840588000,14.300588134765626,7.328651428222656,-4.764461517333984,-0.950498104095459
1790333703857053400,14.317053466796875,6.739677906036377,-8.087613105773926,-0.7469909191131592
1790333703873546500,14.33354638671875,7.4100542068481445,-6.754043102264404,-1.9177556037902832
1790333703890029000,14.350029052734374,5.049371242523193,-7.141903877258301,-1.2952631711959839
1790333703906472400,14.366472412109376,8.219294548034668,-8.279149055480957,-1.7501614093780518
1790333703922953200,14.382953125,7.7428483963012695,-4.8602294921875,-1.479616641998291
1790333703939420700,14.399420654296875,7.845798969268799,-5.810727596282959,-1.1683704853057861
1790333703955859200,14.415859130859374,7.513004779815674,-7.41484260559082,-1.2473790645599365
1790333703972309800,14.432309814453125,6.232107162475586,-4.747702121734619,-0.9313444495201111
1790333703988778000,14.448778076171875,7.110779285430908,-7.0772600173950195,-1.3287819623947144
1790333704005247500,14.46524755859375,7.4770917892456055,-8.920795440673828,-2.1475989818573
1790333704021703700,14.48170361328125,6.88332986831665,-7.465120792388916,-1.800439715385437
1790333704038172000,14.498171875,6.054935932159424,-6.435614109039307,-0.569819986820221
1790333704054488300,14.51448828125,8.485051155090332,-7.8745293617248535,-1.0989385843276978
1790333704070963500,14.53096337890625,8.190564155578613,-4.941632270812988,-2.0039467811584473
1790333704087450000,14.5474501953125,7.156269073486328,-5.789179801940918,-1.1540051698684692
1790333704103924000,14.563924072265625,7.182605266571045,-7.026981830596924,-1.2545616626739502
1790333704120371700,14.580371826171875,4.489128112792969,-6.016628742218018,-1.3958195447921753
1790333704136851500,14.5968515625,7.5417351722717285,-8.288725852966309,-1.9129672050476074
1790333704153318400,14.613318359375,6.512228488922119,-7.544129371643066,-1.6711528301239014
1790333704169800400,14.629800537109375,8.190564155578613,-6.584054470062256,-1.5634137392044067
1790333704186250200,14.646250244140624,4.752490520477295,-7.232883453369141,-1.7334020137786865
1790333704202718700,14.66271875,7.769184589385986,-6.517016887664795,-1.3215993642807007
1790333704219172400,14.67917236328125,8.355764389038086,-4.855441093444824,-2.188300371170044
1790333704235666400,14.69566650390625,5.935225963592529,-7.9415669441223145,-1.0462661981582642
1790333704252148500,14.7121484375,7.225700855255127,-7.833827972412109,-2.3487119674682617
1790333704268598800,14.728598876953125,5.949591159820557,-4.970362663269043,-1.2306196689605713
1790333704285041000,14.745041015625,7.977479934692383,-9.105149269104004,-2.557007312774658
1790333704301493000,14.761492919921874,6.4595561027526855,-5.765237808227539,-0.4572925269603729
1790333704317962800,14.777962646484376,6.531382083892822,-5.468356609344482,-1.3072341680526733
1790333704334461700,14.794461669921875,6.8043212890625,-6.461950302124023,-0.5674257874488831
1790333704350931700,14.810931640625,7.7428483963012695,-6.2847795486450195,-1.0773907899856567
1790333704367402200,14.82740234375,8.200140953063965,-6.94079065322876,-1.702277421951294
1790333704383881700,14.8438818359375,7.010222434997559,-7.931990146636963,-1.7262194156646729
1790333704400373500,14.86037353515625,7.556100368499756,-5.051765441894531,-0.9289502501487732
1790333704416813300,14.876813232421876,11.60948371887207,-0.8858546018600464,1.7812861204147339
1790333704433250000,14.89325,22.517467498779297,-7.790732383728027,-0.6392518281936646
1790333704449686300,14.909686279296874,13.407529830932617,-15.641319274902344,-3.5170822143554688
1790333704466120700,14.92612060546875,5.389348030090332,-7.287950038909912,-3.24414324760437
1790333704482557200,14.94255712890625,9.560047149658203,-7.762001991271973,-3.469198226928711
1790333704498991400,14.958991455078126,2.9233202934265137,-8.288725852966309,-3.2106244564056396
1790333704515431400,14.975431396484375,0.7589619159698486,-12.2990140914917,-9.301473617553711
1790333704531865000,14.991864990234374,8.825027465820312,-8.738836288452148,-7.673416614532471
1790333704548301300,15.00830126953125,7.805097579956055,-7.496245384216309,-1.4173674583435059
1790333704564738800,15.02473876953125,30.336929321289062,-6.081272125244141,-0.5961562395095825
1790333704581175300,15.04117529296875,5.3797712326049805,-8.365341186523438,-1.5418659448623657
1790333704597612500,15.057612548828125,9.708487510681152,-4.434061527252197,1.6328455209732056
1790333704614052600,15.074052490234376,10.400412559509277,-1.1779472827911377,7.180211067199707
1790333704630522400,15.0905224609375,18.339584350585938,-1.3551181554794312,2.8993782997131348
1790333704646962400,15.10696240234375,5.288791656494141,-15.284584045410156,-6.998251438140869
1790333704663400200,15.123400146484375,5.370194435119629,-6.385335922241211,-2.4851813316345215
1790333704679839500,15.139839599609376,8.307879447937012,-6.0621185302734375,-2.5282769203186035
1790333704696278300,15.1562783203125,4.271255970001221,-7.769184589385986,-2.4875755310058594
1790333704712716800,15.172716796875,4.778826713562012,-8.628703117370605,-4.0533833503723145
1790333704729185500,15.189185546875,7.666234016418457,-6.593631267547607,-2.43011474609375
1790333704745627400,15.20562744140625,-4.3406877517700195,-10.553641319274902,-8.26239013671875
1790333704762074600,15.22207470703125,-0.5434837937355042,-7.931990146636963,0.12928688526153564
1790333704778509000,15.238509033203124,20.444087982177734,-9.198522567749023,-0.5147533416748047
1790333704794941400,15.25494140625,10.42195987701416,-8.779537200927734,-2.0039467811584473
1790333704811373000,15.271373046875,3.624821424484253,-6.27280855178833,-1.9033904075622559
1790333704827803000,15.287802978515625,11.307814598083496,-9.821015357971191,-5.556941986083984
1790333704844237000,15.304237060546875,-6.172252178192139,-9.763554573059082,-11.176133155822754
1790333704860670700,15.320670654296874,-0.33758243918418884,-3.514688014984131,-1.965639591217041
1790333704877130000,15.3371298828125,7.65186882019043,-6.478709697723389,-2.585737943649292
1790333704893563000,15.35356298828125,7.005434036254883,-6.174646377563477,-2.0422539710998535
1790333704909973000,15.369972900390625,6.471527099609375,-2.3487119674682617,0.8690952062606812
1790333704926406700,15.38640673828125,2.8993782997131348,-4.884171485900879,-0.9720458984375
1790333704942839000,15.402839111328126,9.117119789123535,-6.825869083404541,-2.717418909072876
1790333704959275500,15.419275634765626,6.473921298980713,-7.0772600173950195,-0.751779317855835
1790333704975705300,15.435705322265624,7.9176249504089355,-7.773972988128662,-2.2625205516815186
1790333704992134000,15.4521337890625,6.691793918609619,-6.907271862030029,-1.5466543436050415
1790333705008599000,15.46859912109375,7.508216381072998,-5.861005783081055,-1.4221558570861816
1790333705025054000,15.485053955078126,6.701370716094971,-6.775590896606445,-1.0031704902648926
1790333705041484800,15.50148486328125,6.512228488922119,-6.449979305267334,-2.2002713680267334
1790333705057914000,15.5179140625,8.588001251220703,-6.507440090179443,-1.9249382019042969
1790333705074346800,15.5343466796875,2.049436569213867,-3.4332852363586426,-1.4197616577148438
1790333705090962700,15.550962646484376,9.624691009521484,-2.8826189041137695,-3.97916316986084
1790333705107034000,15.5670341796875,13.275848388671875,-8.362946510314941,1.1851298809051514
1790333705123534300,15.583534423828125,2.8802247047424316,-9.5624418258667,-1.8148049116134644
1790333705139965200,15.599965087890626,7.16584587097168,-9.157821655273438,-1.01753568649292
1790333705156396300,15.616396240234375,5.3582234382629395,-6.619967937469482,-1.314416766166687
1790333705172800000,15.632800048828125,6.299144744873047,-6.323086738586426,-0.002394201699644327
1790333705189203000,15.649202880859375,9.586383819580078,-6.5912370681762695,-0.608127236366272
1790333705205673000,15.6656728515625,7.3454108238220215,-6.847416877746582,-1.5203180313110352
1790333705222155800,15.68215576171875,6.9455790519714355,-8.08282470703125,-2.561795711517334
1790333705238614500,15.698614501953125,6.979097843170166,-6.696582317352295,-1.0438719987869263
1790333705255085300,15.715085205078125,10.036493301391602,-6.349422931671143,-1.158793568611145
1790333705271545600,15.731545654296875,4.28322696685791,-7.666234016418457,-1.8770540952682495
1790333705287988200,15.74798828125,7.620744228363037,-5.556941986083984,-1.192312479019165
1790333705304476200,15.76447607421875,6.675034523010254,-6.955155849456787,-1.1468225717544556
1790333705320939000,15.78093896484375,5.4659624099731445,-7.292738437652588,-1.6927006244659424
1790333705337384200,15.79738427734375,9.914389610290527,-6.751648902893066,-0.768538773059845
1790333705353874200,15.813874267578125,5.853823184967041,-7.3023152351379395,-2.5953147411346436
1790333705370338600,15.830338623046876,6.191405773162842,-7.872135162353516,-1.3048399686813354
1790333705386774300,15.846774169921876,8.042123794555664,-7.053318023681641,-2.0015525817871094
1790333705403208400,15.86320849609375,3.993528366088867,-6.744466304779053,-1.8914192914962769
1790333705419643000,15.879642822265625,8.336610794067383,-6.222530364990234,1.115697979927063
1790333705436105200,15.896105224609375,6.574477672576904,-6.208165168762207,-2.0805611610412598
1790333705452540400,15.91254052734375,6.588842868804932,-6.347028732299805,-2.1595699787139893
1790333705468975900,15.928975830078125,7.814674377441406,-7.38132381439209,-1.0031704902648926
1790333705485409500,15.945409423828124,4.824316501617432,-7.407660007476807,-1.9345149993896484
1790333705501849000,15.96184912109375,4.687847137451172,-8.20732307434082,-1.9823989868164062
1790333705518281700,15.97828173828125,7.144298076629639,-10.11789608001709,0.1604115068912506
1790333705534715000,15.99471484375,7.041347026824951,-8.664615631103516,-0.3016694188117981
1790333705551180800,16.011180908203126,7.132327079772949,-7.0341644287109375,-1.6927006244659424
1790333705567614200,16.0276142578125,7.105990409851074,-7.271190643310547,-2.0638017654418945
1790333705584041200,16.044041259765624,6.54574728012085,-8.786720275878906,-1.6711528301239014
1790333705600470300,16.06047021484375,7.706935405731201,-4.9368438720703125,-1.0606313943862915
1790333705616929300,16.07692919921875,7.63989782333374,-9.418789863586426,-0.11252748221158981
1790333705633358300,16.0933583984375,1.9800047874450684,-7.726089000701904,-2.6671407222747803
1790333705649784800,16.109784912109376,8.645462036132812,-8.683769226074219,-0.4692635238170624
1790333705666212600,16.126212646484376,6.2392897605896,-5.758055210113525,-3.5889084339141846
1790333705682643000,16.142642822265625,7.297526836395264,-5.604825973510742,-5.123591423034668
1790333705699074600,16.159074462890626,7.599195957183838,-6.392518520355225,-4.213795185089111
1790333705715511000,16.175510986328124,7.888894557952881,-6.72531270980835,-0.031124621629714966
1790333705731945700,16.19194580078125,4.663905143737793,-8.154650688171387,-2.118868589401245
1790333705748384000,16.208384033203124,6.121973514556885,-6.897695064544678,-2.63362193107605
1790333705764816600,16.224816650390625,6.909666061401367,-6.560112476348877,-1.5538369417190552
1790333705781251000,16.2412509765625,4.036623954772949,-5.851428985595703,-1.2473790645599365
1790333705797717500,16.257717529296876,9.583989143371582,-6.751648902893066,-3.44765043258667
1790333705814150700,16.274150634765626,7.2568254470825195,-6.801927089691162,-3.73016619682312
1790333705830587000,16.2905869140625,9.129091262817383,-6.581660270690918,-3.40216064453125
1790333705847023000,16.307023193359374,8.760383605957031,-7.824251174926758,-1.2856862545013428
1790333705863486000,16.32348583984375,4.963180065155029,-8.480262756347656,-0.06464344263076782
1790333705879919000,16.339919189453123,1.8076223134994507,-15.957354545593262,-0.7829039692878723
1790333705896351500,16.3563515625,0.7972691655158997,-10.192116737365723,1.070208191871643
1790333705912785200,16.37278515625,9.3828763961792,-7.5968017578125,-1.3239935636520386
1790333705929101300,16.389101318359376,5.901707172393799,-6.150704383850098,-0.8858546018600464
1790333705945541000,16.405541015625,3.4787750244140625,-7.070077419281006,-2.1811177730560303
1790333705961975600,16.4219755859375,7.2113356590271,-6.754043102264404,-0.8259995579719543
1790333705978406100,16.43840625,10.6709566116333,-6.871358871459961,-0.811634361743927
1790333705994844000,16.454843994140624,11.470620155334473,-6.026205539703369,-1.4987702369689941
1790333706011274200,16.471274169921877,3.4811692237854004,-8.037335395812988,-1.7142484188079834
1790333706027707100,16.48770703125,3.5673606395721436,-7.220912456512451,-0.8667010068893433
1790333706044195000,16.504195068359376,8.26239013671875,-6.157886981964111,-1.824381709098816
1790333706060627000,16.520626953125,7.647080421447754,-6.703764915466309,-0.9600749015808105
1790333706077019400,16.537019287109374,3.7636849880218506,-7.438784599304199,-1.5610195398330688
1790333706093456100,16.5534560546875,8.990227699279785,-5.944802761077881,-0.7038952708244324
1790333706109922800,16.5699228515625,3.7277719974517822,-7.189787864685059,-2.5330653190612793
1790333706126359600,16.586359619140627,8.959102630615234,-5.298368453979492,-0.06703764945268631
1790333706142794800,16.602794677734376,8.418013572692871,-7.503427982330322,0.3495534360408783
1790333706159231000,16.61923095703125,6.09324312210083,-5.746084213256836,-1.0678139925003052
1790333706175667000,16.6356669921875,7.094019412994385,-7.797914981842041,-1.6927006244659424
1790333706192103000,16.65210302734375,8.463502883911133,-6.730101108551025,-1.2497732639312744
1790333706208512300,16.66851220703125,5.353435039520264,-7.733271598815918,-2.207453966140747
1790333706224911600,16.68491162109375,6.885724067687988,-7.079654216766357,-1.41257905960083
1790333706241360400,16.7013603515625,10.41956615447998,-7.307103633880615,-1.0558429956436157
1790333706257819100,16.717819091796876,3.098097085952759,-7.0557122230529785,-1.7405846118927002
1790333706274256000,16.734255859375,7.572859764099121,-5.947196960449219,-1.235408067703247
1790333706290739200,16.7507392578125,7.6997528076171875,-7.067683219909668,-0.8427590131759644
1790333706307169800,16.767169677734376,2.9281086921691895,-6.761225700378418,-0.8092401623725891
1790333706323608600,16.783608642578123,8.061277389526367,-6.8593878746032715,-1.3455413579940796
1790333706340068600,16.800068603515626,6.701370716094971,-8.11634349822998,-1.7597382068634033
1790333706356562000,16.81656201171875,6.512228488922119,-6.876147270202637,-1.534683346748352
1790333706372992000,16.832991943359374,8.42040729522705,-7.7883381843566895,-0.8140285611152649
1790333706389424000,16.849424072265624,9.033323287963867,-7.582436561584473,-0.22505496442317963
1790333706405855000,16.86585498046875,8.226476669311523,-7.0126166343688965,-1.9560627937316895
1790333706422287000,16.882287109375,7.338228225708008,-7.805097579956055,-1.8315643072128296
1790333706438719500,16.898719482421875,6.399701118469238,-10.769119262695312,-1.3287819623947144
1790333706455150300,16.915150390625,8.303091049194336,-10.108319282531738,-0.395043283700943
1790333706471582700,16.931582763671877,9.148244857788086,-5.91128396987915,-2.27209734916687
1790333706488020000,16.94802001953125,3.2968156337738037,-8.573636054992676,-0.7374141216278076
1790333706504451600,16.96445166015625,3.0885202884674072,-8.968679428100586,-0.6200982332229614
1790333706520884500,16.980884521484374,5.896918773651123,-7.398083209991455,0.5746083855628967
1790333706537208300,16.997208251953126,8.7484130859375,-7.457938194274902,-2.7461493015289307
1790333706553639700,17.0136396484375,9.852140426635742,-6.356605529785156,-2.0159177780151367
1790333706570070800,17.03007080078125,4.285621166229248,-5.480327606201172,-1.889025092124939
1790333706586500000,17.0465,4.8937482833862305,-4.774038314819336,-2.3702597618103027
1790333706602961000,17.0629609375,5.616796970367432,-3.2824504375457764,-1.2210428714752197
1790333706619394800,17.079394775390625,4.505887508392334,-1.5083470344543457,-4.99669885635376
1790333706635826200,17.095826171875,6.801927089691162,-1.702277421951294,-1.170764684677124
1790333706652258800,17.1122587890625,12.631808280944824,-4.525041103363037,0.4405331015586853
1790333706668690000,17.12868994140625,15.018827438354492,-5.700594425201416,0.44532153010368347
1790333706685121500,17.14512158203125,10.737994194030762,-5.932831764221191,0.3663128614425659
1790333706701552600,17.161552734375,7.062894821166992,-5.647922039031982,-1.4197616577148438
1790333706717982200,17.177982177734375,4.668693542480469,-5.298368453979492,-4.055777549743652
1790333706734418200,17.194418212890625,3.426102638244629,-3.155557870864868,-0.44771572947502136
1790333706750848800,17.210848876953126,3.6942532062530518,-3.8355112075805664,-1.036689281463623
1790333706767281200,17.22728125,7.103596210479736,-4.197035789489746,-1.7908629179000854
1790333706783713300,17.24371337890625,8.161833763122559,-4.2090067863464355,-1.9177556037902832
1790333706800144000,17.260143798828125,7.951143741607666,-5.889736175537109,-2.7269957065582275
1790333706816578000,17.276578125,9.612719535827637,-9.75637149810791,-3.936067581176758
1790333706833012000,17.293011962890624,8.04930591583252,-11.60708999633789,-2.765302896499634
1790333706849476600,17.3094765625,3.490746021270752,-10.086771965026855,0.06464344263076782
1790333706865913600,17.32591357421875,13.19205093383789,-9.284713745117188,-1.5394717454910278
1790333706882350600,17.3423505859375,8.020575523376465,-10.113107681274414,-3.866635799407959
1790333706898787300,17.358787353515623,6.481103897094727,-6.414066314697266,-2.2409727573394775
1790333706915222800,17.375222900390625,1.6927006244659424,-3.531447410583496,-3.423708438873291
1790333706931530000,17.391530029296874,5.884947776794434,-6.9695210456848145,1.0678139925003052
1790333706947966700,17.407966796875,12.717999458312988,-8.686163902282715,-3.4093432426452637
1790333706964404000,17.424404052734374,8.097189903259277,-8.465897560119629,-1.800439715385437
1790333706979863600,17.439863525390624,4.189853191375732,-9.744400978088379,-1.4532804489135742
1790333706996303000,17.45630322265625,-0.15322890877723694,-4.747702121734619,-0.5793967843055725
1790333707012740400,17.472740234375,9.162610054016113,-5.928043365478516,-2.5905263423919678
1790333707029176600,17.489176513671875,5.109226226806641,-6.519411087036133,-2.212242364883423
1790333707045613300,17.50561328125,7.228095054626465,-7.096413612365723,-0.6488286852836609
1790333707062052000,17.522052001953124,9.646238327026367,-7.728483200073242,4.266467571258545
1790333707078545200,17.538545166015624,13.61103630065918,-8.583212852478027,-1.1324573755264282
1790333707094965800,17.5549658203125,11.080365180969238,-5.9519853591918945,-2.1284453868865967
1790333707111405800,17.57140576171875,1.1659762859344482,-5.037400245666504,1.2330138683319092
1790333707127842800,17.5878427734375,5.015852451324463,-7.845798969268799,-0.7086837291717529
1790333707144280600,17.604280517578125,5.904101371765137,-6.852205276489258,-0.811634361743927
1790333707160717000,17.620717041015624,7.814674377441406,-6.9910688400268555,-0.4596867263317108
1790333707177161700,17.63716162109375,6.13633918762207,-7.5968017578125,-1.6376339197158813
1790333707193598000,17.653597900390626,6.081272125244141,-8.580819129943848,0.28969839215278625
1790333707209894100,17.66989404296875,5.990292549133301,-10.350133895874023,2.252943754196167
1790333707226316800,17.68631689453125,11.26950740814209,-14.642937660217285,-15.708357810974121
1790333707242753000,17.7027529296875,14.815320014953613,-8.638279914855957,-0.8140285611152649
1790333707259192000,17.719192138671875,8.245630264282227,-6.3063273429870605,-2.9305028915405273
1790333707275634400,17.735634521484375,-0.5746083855628967,-2.9975404739379883,1.1180921792984009
1790333707292074000,17.752073974609374,6.335057735443115,-7.230489253997803,-0.7757213711738586
1790333707308514600,17.7685146484375,9.064447402954102,-8.614337921142578,-2.3104045391082764
1790333707324953300,17.784953369140624,5.04218864440918,-7.795520782470703,-1.6879122257232666
1790333707341420800,17.8014208984375,4.728548526763916,-7.275979042053223,-2.940079689025879
1790333707357859600,17.817859619140624,6.143521785736084,-6.064512729644775,-2.1547815799713135
1790333707374295600,17.834295654296874,4.170699596405029,-7.228095054626465,-1.1013327836990356
1790333707390733800,17.85073388671875,3.445256233215332,-6.806715488433838,-2.3295583724975586
1790333707407171800,17.867171875,7.6351094245910645,-8.542511940002441,-1.802833914756775
1790333707423609000,17.883609130859377,4.24970817565918,-7.872135162353516,-0.9457096457481384
1790333707440047400,17.90004736328125,5.128379821777344,-5.504269599914551,-2.808398485183716
1790333707456486700,17.916486572265626,7.5201873779296875,-6.078877925872803,-2.27209734916687
1790333707472933400,17.932933349609375,6.399701118469238,-7.702147006988525,-1.8818424940109253
1790333707489376300,17.949376220703126,6.775590896606445,-7.723694801330566,-1.3072341680526733
1790333707505850000,17.96585009765625,6.890512466430664,-7.38132381439209,-1.2617442607879639
1790333707522290000,17.9822900390625,3.7421371936798096,-6.555324077606201,-0.9002198576927185
1790333707538729700,17.998729736328126,4.2544965744018555,-9.083600997924805,-1.4053963422775269
1790333707555168800,18.015168701171874,5.829881191253662,-8.619126319885254,-1.9512743949890137
1790333707571606500,18.0316064453125,6.536170482635498,-8.916007041931152,-2.1475989818573
1790333707588105000,18.04810498046875,5.803544998168945,-9.892841339111328,-0.8068459630012512
1790333707604542500,18.06454248046875,3.4356794357299805,-9.730035781860352,0.9888052940368652
1790333707620979000,18.08097900390625,6.512228488922119,-7.383718013763428,-1.6663644313812256
1790333707637420300,18.097420166015624,7.931990146636963,-8.78432559967041,0.7637503147125244
1790333707653858300,18.1138583984375,-4.022258758544922,-4.278438568115234,-5.767632007598877
1790333707670295800,18.1302958984375,6.5050458908081055,-8.468291282653809,-4.381389141082764
1790333707686733600,18.146733642578123,2.7964274883270264,-6.907271862030029,-3.8594532012939453
1790333707703170600,18.163170654296874,4.347870349884033,-6.868964672088623,-1.3766659498214722
1790333707719611000,18.17961083984375,5.925649166107178,-9.028534889221191,-2.4396915435791016
1790333707736073500,18.196073486328125,7.005434036254883,-7.232883453369141,-1.4197616577148438
1790333707752509700,18.212509765625,4.73573112487793,-7.268796443939209,-0.3902548849582672
1790333707768998400,18.228998291015625,8.69095230102539,-7.752425193786621,-0.30885201692581177
1790333707785438200,18.245438232421876,5.971138954162598,-6.63433313369751,-0.6392518281936646
1790333707801887700,18.2618876953125,4.867412090301514,-8.169015884399414,-4.079719543457031
1790333707818326500,18.278326416015624,8.31985092163086,-6.912060260772705,-4.252102375030518
1790333707834794200,18.294794189453125,2.248155355453491,-6.2416839599609375,-0.3902548849582672
1790333707851235600,18.311235595703124,9.148244857788086,-8.71728801727295,-0.28730419278144836
1790333707867675000,18.3276748046875,6.069301128387451,-9.423578262329102,1.9560627937316895
1790333707884116500,18.344116455078126,3.3207578659057617,-7.915230751037598,0.3758896589279175
1790333707900591400,18.36059130859375,3.469198226928711,-7.524975776672363,-0.1388636976480484
1790333707917033000,18.377032958984376,7.465120792388916,-7.63989782333374,-0.7733271718025208
1790333707933474000,18.39347412109375,5.331887245178223,-7.47230339050293,-0.9911994934082031
1790333707949928400,18.409928466796874,6.631938934326172,-7.967903137207031,-0.3758896589279175
1790333707966429400,18.426429443359375,5.640739440917969,-7.527369976043701,-0.9600749015808105
1790333707982897200,18.442897216796876,7.558494567871094,-3.0166940689086914,-0.5602431893348694
1790333707999335700,18.459335693359375,9.366117477416992,-7.805097579956055,-2.3702597618103027
1790333708015775200,18.475775146484374,11.027692794799805,-6.449979305267334,-1.9919757843017578
1790333708032215300,18.49221533203125,6.011840343475342,-6.2847795486450195,-1.9800047874450684
1790333708048654600,18.508654541015623,7.8745293617248535,-5.341464042663574,-0.22266076505184174
1790333708065095700,18.525095703125,5.262455463409424,-4.661510944366455,-0.15562310814857483
1790333708081513000,18.541512939453124,1.7142484188079834,-5.726930618286133,-2.0446481704711914
1790333708097957400,18.557957275390624,15.46414852142334,-5.432443618774414,0.016759412363171577
1790333708114398200,18.574398193359375,4.2975921630859375,-3.8331170082092285,-0.31124621629714966
1790333708130838500,18.590838623046874,6.3949127197265625,-6.493074893951416,-0.6512228846549988
1790333708147276500,18.607276611328125,9.081207275390625,-11.022904396057129,-3.1244332790374756
1790333708163690800,18.623690673828126,5.396530628204346,-10.649409294128418,-1.6519991159439087
1790333708180128500,18.64012841796875,10.958261489868164,-10.900800704956055,-1.0079588890075684
1790333708196565500,18.6565654296875,12.318167686462402,-7.572859764099121,0.2082955539226532
1790333708213007400,18.67300732421875,7.903259754180908,-5.341464042663574,-0.5817909836769104
1790333708229445000,18.689445068359376,7.422025203704834,-6.572083473205566,-0.6033388376235962
1790333708245880600,18.705880615234374,6.936002254486084,-7.4770917892456055,-0.7565677165985107
1790333708262350600,18.7223505859375,9.454702377319336,-7.9415669441223145,1.256955862045288
1790333708278784300,18.7387841796875,11.587936401367188,-5.882553577423096,3.931279182434082
1790333708295217700,18.7552177734375,6.337451934814453,-4.486733913421631,0.7493851184844971
1790333708311652000,18.771652099609376,9.50737476348877,-5.157110691070557,-2.1715409755706787
1790333708328106000,18.78810595703125,5.461174011230469,-6.481103897094727,-0.49320554733276367
1790333708344539100,18.8045390625,9.035717010498047,-7.338228225708008,-3.797203779220581
1790333708360971800,18.8209716796875,6.270414352416992,-7.311892032623291,-1.659181833267212
1790333708377406200,18.83740625,5.25527286529541,-6.615179061889648,-1.3958195447921753
1790333708393838300,18.85383837890625,5.51624059677124,-5.669469833374023,-0.8475474119186401
1790333708410270500,18.8702705078125,7.568071365356445,-6.646304130554199,-2.3032219409942627
1790333708426704000,18.886703857421875,8.564059257507324,-6.129156112670898,-1.2258312702178955
1790333708443138600,18.903138671875,6.75883150100708,-6.48828649520874,-1.434126853942871
1790333708459580200,18.919580078125,8.96149730682373,-2.9328970909118652,-0.4357447028160095
1790333708476014800,18.936014892578125,13.457807540893555,-5.942408561706543,-1.2042834758758545
1790333708492450800,18.952450927734375,9.478644371032715,-14.149731636047363,-4.594472885131836
1790333708508886000,18.968885986328125,13.275848388671875,-15.016432762145996,-6.892906665802002
1790333708525317600,18.985317626953126,10.96304988861084,-9.682151794433594,-0.2106897532939911
1790333708541748500,19.00174853515625,10.862493515014648,-8.89685344696045,4.843470096588135
1790333708558182100,19.01818212890625,-18.021156311035156,-9.914389610290527,-36.03752517700195
1790333708574643000,19.034642822265624,13.864822387695312,-1.9728221893310547,-7.156269073486328
1790333708591076000,19.051076171875,9.84495735168457,-6.406883716583252,-9.50737476348877
1790333708607504600,19.067504638671874,-10.20887565612793,-5.861005783081055,-6.66785192489624
1790333708623936000,19.08393603515625,4.398148536682129,-5.351040840148926,-1.4245500564575195
1790333708640370000,19.100369873046876,13.455413818359375,-3.6822822093963623,9.07641887664795
1790333708656805600,19.1168056640625,4.211400985717773,-6.557718276977539,0.2322375625371933
1790333708673239000,19.133239013671876,12.45463752746582,-3.5482068061828613,-4.398148536682129
1790333708689672200,19.149672119140625,4.7405195236206055,-2.2146365642547607,0.8331822156906128
1790333708706110700,19.16611083984375,4.929661273956299,-1.290474772453308,-1.9177556037902832
1790333708722544000,19.182544189453125,-1.680729627609253,-1.8052281141281128,-0.5889736413955688
1790333708738979300,19.198979248046875,-0.2801215946674347,-3.890577793121338,-1.2449848651885986
1790333708755416300,19.215416259765625,8.26478385925293,-2.604891538619995,0.8236053586006165
1790333708771854000,19.23185400390625,3.07415509223938,-1.2737152576446533,2.300827741622925
1790333708788291300,19.248291259765626,6.212953567504883,-14.994885444641113,3.7900211811065674
1790333708804729000,19.26472900390625,19.467254638671875,-16.117765426635742,-3.6607344150543213
1790333708821196500,19.281196533203126,4.23773717880249,-6.244078159332275,-0.47405192255973816
1790333708837636600,19.29763671875,2.013523578643799,-22.033838272094727,-5.827486991882324
1790333708854077200,19.3140771484375,8.631096839904785,-5.60722017288208,-1.702277421951294
1790333708870514700,19.3305146484375,6.957550048828125,-7.347805023193359,-2.5785553455352783
1790333708886982700,19.346982666015624,3.866635799407959,-7.881711959838867,-3.2106244564056396
1790333708903453400,19.363453369140625,7.881711959838867,-6.615179061889648,-2.585737943649292
1790333708919918600,19.379918701171874,5.094861030578613,-8.17380428314209,-3.6080620288848877
1790333708936353800,19.396353759765624,5.049371242523193,-6.971915245056152,-2.537853717803955
1790333708952800000,19.412800048828124,5.57370138168335,-7.481880187988281,-2.3535003662109375
1790333708969235500,19.4292353515625,3.2632968425750732,-8.281543731689453,-2.10210919380188
1790333708985669400,19.44566943359375,6.179434776306152,-7.783549785614014,-2.674323320388794
1790333709002108700,19.462108642578126,6.763619899749756,-7.589619159698486,-2.580949544906616
1790333709018545000,19.478544921875,5.109226226806641,-7.568071365356445,-2.0661959648132324
1790333709034985000,19.49498486328125,4.632780075073242,-8.001421928405762,-2.779668092727661
1790333709051419600,19.511419677734374,5.331887245178223,-7.6111674308776855,-3.713406801223755
1790333709067884300,19.52788427734375,2.0039467811584473,-9.473855972290039,-2.1811177730560303
1790333709084355600,19.54435546875,7.386112213134766,-8.010998725891113,-1.1228805780410767
1790333709100790500,19.56079052734375,3.773261785507202,-8.506598472595215,-2.1116859912872314
1790333709117228300,19.577228271484376,1.6400281190872192,-8.592789649963379,-1.6136919260025024
1790333709133663000,19.5936630859375,-4.704606533050537,-8.834604263305664,-3.8139634132385254
1790333709150098200,19.61009814453125,3.825934410095215,-9.433155059814453,-3.8379054069519043
1790333709166533400,19.626533447265626,6.347028732299805,-12.469002723693848,0.6057330369949341
1790333709182967800,19.6429677734375,6.84981107711792,-8.779537200927734,-4.2544965744018555
1790333709199410700,19.65941064453125,4.857835292816162,-9.660603523254395,-1.1492167711257935
1790333709215709000,19.675708984375,6.124367713928223,-6.464344501495361,-0.9265560507774353
1790333709232144600,19.69214453125,6.703764915466309,-7.359776020050049,-3.313575267791748
1790333709248578300,19.708578369140625,3.6846764087677,-9.121908187866211,-1.778891921043396
1790333709265011000,19.725010986328126,1.7070658206939697,-9.105149269104004,-2.7126305103302
1790333709281449000,19.741448974609376,9.825803756713867,-9.378087997436523,-3.1292216777801514
1790333709297884400,19.757884521484375,1.843535304069519,-9.040505409240723,-3.5170822143554688
1790333709314353400,19.774353515625,4.369418144226074,-7.2113356590271,-4.659116744995117
1790333709330789600,19.79078955078125,6.603208065032959,-8.307879447937012,-2.827552318572998
1790333709347226400,19.807226318359376,1.2545616626739502,-5.315127849578857,-3.624821424484253
1790333709363663400,19.823663330078126,3.993528366088867,-7.094019412994385,0.038307227194309235
1790333709380098800,19.840098876953125,5.858611583709717,-4.857835292816162,-3.6942532062530518
1790333709396534500,19.856534423828126,4.656722068786621,-7.994239330291748,-1.0989385843276978
1790333709412969000,19.872968994140624,3.971980571746826,-8.619126319885254,-3.361459255218506
1790333709429402000,19.889402099609374,2.1284453868865967,-7.266402244567871,-3.3710360527038574
1790333709445841700,19.905841552734376,4.704606533050537,-5.389348030090332,-1.5873557329177856
1790333709462276000,19.922276123046874,7.417236804962158,-3.7158010005950928,-3.732560396194458
1790333709478711000,19.9387109375,4.163516521453857,-4.113238334655762,-1.8052281141281128
1790333709495144000,19.95514404296875,4.446032524108887,-2.7772738933563232,-1.6855180263519287
1790333709511577900,19.971577880859375,10.706870079040527,-26.575639724731445,-1.2210428714752197
1790333709528014300,19.988014404296877,0.1388636976480484,-14.075511932373047,-2.6886885166168213
1790333709544451000,20.004451171875,3.88818359375,-11.832144737243652,-3.1244332790374756
1790333709560917800,20.020917724609376,5.477933406829834,-8.573636054992676,-2.5953147411346436
1790333709577353000,20.03735302734375,3.536235809326172,-7.613561630249023,-1.9129672050476074
1790333709593790700,20.053790771484376,5.935225963592529,-7.994239330291748,-2.0183119773864746
1790333709610230500,20.07023046875,3.5913026332855225,-7.9415669441223145,-2.2409727573394775
1790333709626669000,20.0866689453125,1.6184803247451782,-8.992621421813965,-1.900996208190918
1790333709643105000,20.10310498046875,4.290409564971924,-9.5624418258667,-3.1675288677215576
1790333709659542500,20.11954248046875,2.937685489654541,-10.366893768310547,-3.3303346633911133
1790333709675979000,20.13597900390625,5.114014625549316,-9.193734169006348,-3.428496837615967
1790333709692426200,20.15242626953125,9.567230224609375,-5.992686748504639,-6.672640323638916
1790333709708864500,20.168864501953124,1.941697597503662,-2.5019407272338867,-4.027047157287598
1790333709725303800,20.1853037109375,1.139639973640442,-15.418659210205078,1.3407529592514038
1790333709741743600,20.20174365234375,4.654327869415283,-8.090007781982422,-2.6455929279327393
1790333709758183000,20.218182861328124,5.142745018005371,-9.818621635437012,-2.0183119773864746
1790333709774619100,20.234619140625,4.54419469833374,-8.202534675598145,-0.49320554733276367
1790333709791054000,20.25105419921875,3.023876667022705,-7.314286231994629,-3.339911460876465
1790333709807518500,20.2675185546875,3.354276657104492,-5.114014625549316,-2.918531894683838
1790333709823952100,20.2839521484375,5.082890033721924,-10.273519515991211,-3.885789394378662
1790333709840386600,20.300386474609375,4.211400985717773,-5.118803024291992,-2.6815059185028076
1790333709856820700,20.31682080078125,5.954379558563232,-9.174580574035645,-3.6559460163116455
1790333709873257000,20.333257080078123,1.577778935432434,-5.743690013885498,-3.0885202884674072
1790333709889704400,20.349704345703124,4.989516258239746,-7.556100368499756,-3.667917013168335
1790333709906140200,20.36614013671875,6.660669326782227,-7.757213592529297,-4.1874589920043945
1790333709922605800,20.382605712890626,4.613626480102539,-9.442731857299805,-2.851494312286377
1790333709939049000,20.399049072265626,3.861847400665283,-8.413225173950195,-3.579331636428833
1790333709955512800,20.415512939453127,5.815515995025635,-8.073247909545898,-3.4117374420166016
1790333709971931400,20.431931396484377,2.717418909072876,-6.981492042541504,-3.7014358043670654
1790333709988380200,20.448380126953126,1.8483237028121948,-5.281609058380127,-3.222595453262329
1790333710004787700,20.46478759765625,1.7070658206939697,-14.63814926147461,-3.7229835987091064
1790333710021280000,20.481280029296876,-0.706289529800415,-6.421248912811279,-0.5913678407669067
1790333710037715000,20.49771484375,4.81473970413208,-11.183316230773926,-5.39174222946167
1790333710054231600,20.5142314453125,5.011064052581787,-9.473855972290039,-6.095637321472168
1790333710070535000,20.530534912109374,3.8810009956359863,-7.750030994415283,-4.170699596405029
1790333710086935600,20.546935546875,4.37420654296875,-9.332598686218262,-3.5027170181274414
1790333710103353300,20.563353271484374,3.598485231399536,-8.391676902770996,-5.097255229949951
1790333710119821600,20.579821533203123,3.045424461364746,-10.826580047607422,-2.7772738933563232
1790333710136257300,20.59625732421875,5.023035049438477,-7.601590633392334,-3.2537200450897217
1790333710152692000,20.61269189453125,3.3423056602478027,-8.31985092163086,-2.5306711196899414
1790333710169125600,20.629125732421876,3.6607344150543213,-9.399636268615723,-3.421314239501953
1790333710185590300,20.64559033203125,4.8482584953308105,-7.838616371154785,-3.114856481552124
1790333710202075600,20.66207568359375,3.1052796840667725,-9.418789863586426,-4.0749311447143555
1790333710218547500,20.67854736328125,3.399766445159912,-9.11233139038086,-3.043030261993408
1790333710235018000,20.69501806640625,3.7038300037384033,-8.31985092163086,-3.399766445159912
1790333710251446300,20.7114462890625,3.1100680828094482,-8.20732307434082,-2.9305028915405273
1790333710267875000,20.727875,1.889025092124939,-9.227252960205078,-2.5258827209472656
1790333710284304100,20.74430419921875,5.382165431976318,-9.006986618041992,-3.383007049560547
1790333710300772400,20.7607724609375,3.488351821899414,-9.524134635925293,-2.8419175148010254
1790333710317255700,20.777255615234374,3.1914708614349365,-8.887276649475098,-3.251325845718384
1790333710333712100,20.793712158203125,5.2265424728393555,-8.858546257019043,-3.758896589279175
1790333710350177000,20.810177001953125,3.1292216777801514,-8.942343711853027,-4.098873138427734
1790333710366636300,20.82663623046875,3.8977603912353516,-8.128314971923828,-2.3918075561523438
1790333710383071700,20.84307177734375,4.156333923339844,-8.992621421813965,-3.514688014984131
1790333710399507000,20.8595068359375,2.1978771686553955,-7.508216381072998,-2.0470423698425293
1790333710415940600,20.875940673828126,6.469132900238037,-7.491456985473633,-2.8610711097717285
1790333710432405200,20.8924052734375,5.2696380615234375,-8.374917984008789,-3.3901896476745605
1790333710448841700,20.908841796875,2.604891538619995,-8.49941635131836,-3.093308687210083
1790333710465280000,20.925280029296875,4.771644115447998,-8.664615631103516,-3.1196448802948
1790333710481748000,20.941748046875,2.252943754196167,-8.391676902770996,-2.7772738933563232
1790333710498182100,20.95818212890625,1.436521053314209,-8.927978515625,-4.19224739074707
1790333710514617300,20.974617431640624,4.699818134307861,-6.933608055114746,-1.6543933153152466
1790333710531052000,20.991052001953125,4.666299343109131,-9.59835433959961,-2.8203697204589844
1790333710547515100,21.00751513671875,2.75812029838562,-9.337387084960938,-3.251325845718384
1790333710563974700,21.023974609375,6.964732646942139,-9.612719535827637,-3.1028854846954346
1790333710580410000,21.04041015625,4.568136692047119,-9.926360130310059,-3.56017804145813
1790333710596854300,21.056854248046875,3.2082302570343018,-9.825803756713867,-3.3925838470458984
1790333710613345000,21.073344970703126,4.474762916564941,-8.42040729522705,-2.676717519760132
1790333710629813000,21.08981298828125,2.829946517944336,-6.998251438140869,-2.161964178085327
1790333710646273800,21.106273681640626,1.7573440074920654,-7.881711959838867,-2.8227639198303223
1790333710662733800,21.12273388671875,5.6910176277160645,-7.740454196929932,-3.332728862762451
1790333710679197400,21.139197509765626,5.212177276611328,-8.075642585754395,-2.9089550971984863
1790333710695683300,21.155683349609376,2.535459518432617,-9.344569206237793,-3.332728862762451
1790333710712112600,21.172112548828125,6.845022678375244,-9.560047149658203,-2.985569477081299
1790333710728595700,21.188595703125,4.335899353027344,-10.14902114868164,-3.4189200401306152
1790333710745053400,21.205053466796876,3.536235809326172,-10.453084945678711,-2.913743495941162
1790333710761483800,21.22148388671875,4.412513732910156,-9.277531623840332,-3.3901896476745605
