time,seconds_elapsed,z,y,x
1790333689678799400,0.13879931640625,-0.033597588539123535,0.015271631069481373,-0.10751228034496307
1790333689695280000,0.155280029296875,-0.033597588539123535,0.015271631069481373,-0.10751228034496307
1790333689711755500,0.171755615234375,-0.033597588539123535,0.015271631069481373,-0.10751228034496307
1790333689728221400,0.188221435546875,-0.033597588539123535,0.015271631069481373,-0.10751228034496307
1790333689744773600,0.204773681640625,-0.033597588539123535,0.015271631069481373,-0.10751228034496307
1790333689761241300,0.221241455078125,-0.033597588539123535,0.015271631069481373,-0.10751228034496307
1790333689777714000,0.2377138671875,0.11056660860776901,-0.3500257730484009,0.2736676335334778
1790333689794161200,0.2541611328125,0.1411098688840866,-0.3640756905078888,0.40256020426750183
1790333689810515000,0.270514892578125,0.19303341209888458,-0.2822197377681732,0.46792277693748474
1790333689826896000,0.286895751953125,0.19608774781227112,-0.3237585723400116,0.4404338300228119
1790333689843345200,0.30334521484375,0.15393804013729095,-0.43188172578811646,0.3604104816913605
1790333689859808500,0.31980859375,0.15332718193531036,-0.3988949954509735,0.29016098380088806
1790333689876285200,0.33628515625,0.19058994948863983,-0.21807889640331268,0.26572638750076294
1790333689892751000,0.352751220703125,0.24434609711170197,-0.06963863968849182,0.2583959996700287
1790333689909222400,0.369222412109375,0.22602014243602753,-0.1014036312699318,0.2565633952617645
1790333689925633800,0.3856337890625,0.1875356286764145,-0.14477506279945374,0.2638937830924988
1790333689942084900,0.4020849609375,0.13316862285137177,-0.11911872029304504,0.28527405858039856
1790333689958585000,0.418585205078125,0.11789698898792267,0.021991148591041565,0.2974913716316223
1790333689975033000,0.435033203125,0.09957103431224823,0.02015855349600315,0.2877175211906433
1790333689991472000,0.45147216796875,0.042760565876960754,-0.03298672288656235,0.2565633952617645
1790333690007939000,0.46793896484375,0.010995574295520782,-0.03848451003432274,0.21074850857257843
1790333690024390700,0.484390625,0.02321287989616394,0.031154127791523933,0.17287486791610718
1790333690040889600,0.5008896484375,0.06963863968849182,0.10934487730264664,0.17287486791610718
1790333690057346300,0.51734619140625,0.05314527451992035,0.025656340643763542,0.17898350954055786
1790333690073783300,0.533783203125,0.02626720629632473,-0.015882495790719986,0.18814650177955627
1790333690090250200,0.550250244140625,0.006719517521560192,-0.02015855349600315,0.17531833052635193
1790333690106716000,0.5667158203125,0.045204028487205505,0.1014036312699318,0.16859880089759827
1790333690123186400,0.5831865234375,0.04642575979232788,0.07147123664617538,0.14049901068210602
1790333690139626500,0.59962646484375,0.03481931984424591,-0.009162978269159794,0.11484266817569733
1790333690156091400,0.61609130859375,0.0354301854968071,-0.0555887371301651,0.1007927656173706
1790333690172544000,0.6325439453125,0.04764748737215996,-0.029932396486401558,0.10934487730264664
1790333690188989400,0.648989501953125,0.06291911751031876,0.051312681287527084,0.12095131725072861
1790333690205455600,0.66545556640625,0.025045474991202354,0,0.08735372871160507
1790333690221932500,0.6819326171875,0.009773843921720982,-0.007941247895359993,0.06169738993048668
1790333690238420500,0.69842041015625,0.0024434609804302454,-0.012217304669320583,0.05192354694008827
1790333690254896400,0.714896484375,0.02871066704392433,0.0708603709936142,0.05619960278272629
1790333690271375600,0.731375732421875,0.03176499158143997,0.007941247895359993,0.04337143152952194
1790333690287875600,0.74787548828125,0.009162978269159794,-0.07330382615327835,0.018936822190880775
1790333690304352300,0.764352294921875,-0.003054326167330146,-0.08124507963657379,-0.006108652334660292
1790333690320843300,0.78084326171875,0.00855211354792118,0.009162978269159794,-0.015882495790719986
1790333690337325000,0.797324951171875,0.030543262138962746,0.0806342139840126,-0.00733038317412138
1790333690353796000,0.813796142578125,-0.003054326167330146,-0.012217304669320583,-0.010995574295520782
1790333690370263600,0.830263671875,-0.00855211354792118,-0.05864306539297104,-0.001832595793530345
1790333690386741000,0.846740966796875,-0.003054326167330146,-0.06963863968849182,0.01038470957428217
1790333690403232000,0.86323193359375,0.03481931984424591,0.04886921867728233,0.04337143152952194
1790333690419710200,0.879710205078125,0.029932396486401558,-0.025656340643763542,0.04153883829712868
1790333690436158000,0.896157958984375,0.009773843921720982,-0.11728613078594208,0.033597588539123535
1790333690452597200,0.91259716796875,0.0006108652451075613,-0.10690141469240189,0.02932153269648552
1790333690469069800,0.92906982421875,0.007941247895359993,-0.0403171069920063,0.022602014243602753
1790333690485561600,0.9455615234375,0.03726277872920036,0.08491026610136032,0.021991148591041565
1790333690502035700,0.96203564453125,0.0006108652451075613,-0.00855211354792118,0
1790333690518510800,0.9785107421875,-0.01710422709584236,-0.05375614017248154,-0.0024434609804302454
1790333690535010300,0.99501025390625,-0.009162978269159794,-0.054367005825042725,-0.005497787147760391
1790333690551495400,1.011495361328125,0.02076941914856434,0.012828170321881771,0.003054326167330146
1790333690567990800,1.02799072265625,0.03787364438176155,0.02321287989616394,0.003054326167330146
1790333690584476400,1.044476318359375,0.009162978269159794,-0.08307767659425735,-0.00427605677396059
1790333690600967200,1.06096728515625,-0.006719517521560192,-0.10751228034496307,0.0012217304902151227
1790333690617445400,1.0774453125,-0.0012217304902151227,-0.027488935738801956,0.012217304669320583
1790333690633930200,1.09393017578125,0.03481931984424591,0.10995574295520782,0.02321287989616394
1790333690650398000,1.11039794921875,0.014049900695681572,0.03176499158143997,0.01038470957428217
1790333690666878000,1.1268779296875,-0.009773843921720982,-0.05864306539297104,-0.001832595793530345
1790333690683348000,1.143347900390625,-0.02015855349600315,-0.06658431142568588,-0.0024434609804302454
1790333690699847200,1.15984716796875,-0.00427605677396059,0.016493361443281174,0.00855211354792118
1790333690716333300,1.176333251953125,0.014049900695681572,0.10323622822761536,0.018936822190880775
1790333690732829200,1.1928291015625,-0.027488935738801956,-0.005497787147760391,-0.0006108652451075613
1790333690749324500,1.209324462890625,-0.03481931984424591,-0.04764748737215996,-0.00427605677396059
1790333690765796000,1.225796142578125,-0.039095375686883926,-0.013439035043120384,0.00733038317412138
1790333690782295000,1.242294921875,0.0006108652451075613,0.11301007121801376,0.02932153269648552
1790333690798792700,1.258792724609375,-0.014049900695681572,0.03481931984424591,0.022602014243602753
1790333690815263700,1.275263671875,-0.03237585723400116,-0.014049900695681572,0.018325956538319588
1790333690831743700,1.29174365234375,-0.03726277872920036,-0.02687807008624077,0.01771509274840355
1790333690848237600,1.308237548828125,-0.02321287989616394,0.0403171069920063,0.03237585723400116
1790333690864732400,1.324732421875,0.0006108652451075613,0.09896016865968704,0.0507018156349659
1790333690881196500,1.341196533203125,-0.03298672288656235,-0.016493361443281174,0.039706241339445114
1790333690897664300,1.357664306640625,-0.04581489413976669,-0.03848451003432274,0.03298672288656235
1790333690914146600,1.374146484375,-0.042760565876960754,-0.007941247895359993,0.029932396486401558
1790333690930616800,1.390616943359375,-0.01466076634824276,0.11423180252313614,0.056810468435287476
1790333690947117000,1.407116943359375,-0.018936822190880775,0.08918632566928864,0.0659734457731247
1790333690963566800,1.42356689453125,-0.04581489413976669,-0.005497787147760391,0.06352998316287994
1790333690980092200,1.440092041015625,-0.05803219974040985,-0.03726277872920036,0.06414084881544113
1790333690996572000,1.456572021484375,-0.04764748737215996,0.0024434609804302454,0.06414084881544113
1790333691013056000,1.473055908203125,-0.01771509274840355,0.10201449692249298,0.07819075137376785
1790333691029531400,1.489531494140625,-0.03726277872920036,0.04948008432984352,0.06536258012056351
1790333691046009300,1.50600927734375,-0.06719517707824707,-0.003054326167330146,0.0555887371301651
1790333691062505000,1.5225048828125,-0.07635815441608429,0.009773843921720982,0.06108652427792549
1790333691078959400,1.53895947265625,-0.04398229718208313,0.13866640627384186,0.10995574295520782
1790333691095453400,1.555453369140625,-0.030543262138962746,0.13988813757896423,0.15943582355976105
1790333691111974700,1.571974609375,-0.03481931984424591,0.019547687843441963,0.1667662113904953
1790333691128441600,1.588441650390625,-0.03848451003432274,-0.0861319974064827,0.1472185254096985
1790333691144905000,1.604905029296875,-0.019547687843441963,-0.027488935738801956,0.13316862285137177
1790333691161362700,1.62136279296875,-0.00366519158706069,0.08368854224681854,0.13561208546161652
1790333691177852700,1.637852783203125,-0.02015855349600315,0.03726277872920036,0.11484266817569733
1790333691194325800,1.65432568359375,-0.024434609338641167,-0.03787364438176155,0.09468411654233932
1790333691210818300,1.670818359375,-0.01771509274840355,-0.07208210229873657,0.08796459436416626
1790333691227306200,1.68730615234375,0.02321287989616394,0.00366519158706069,0.08368854224681854
1790333691243787300,1.703787353515625,0.036041051149368286,-0.02871066704392433,0.0708603709936142
1790333691260265500,1.720265380859375,0.018325956538319588,-0.10018189996480942,0.06841690838336945
1790333691276709600,1.736709716796875,0.015271631069481373,-0.06230825558304787,0.0757472887635231
1790333691293187600,1.7531875,0.028099801391363144,0.03481931984424591,0.08246681094169617
1790333691309681700,1.769681640625,0.05864306539297104,0.18814650177955627,0.1007927656173706
1790333691326148900,1.78614892578125,0.056810468435287476,0.1258382350206375,0.09407325088977814
1790333691342606800,1.80260693359375,0.05009094998240471,0.019547687843441963,0.08368854224681854
1790333691359079400,1.819079345703125,0.045204028487205505,-0.005497787147760391,0.08735372871160507
1790333691375541800,1.835541748046875,0.04948008432984352,0.08429940044879913,0.09957103431224823
1790333691392006100,1.852006103515625,0.04642575979232788,0.11484266817569733,0.08491026610136032
1790333691408465400,1.86846533203125,0.018325956538319588,0.039095375686883926,0.039095375686883926
1790333691424940800,1.88494091796875,-0.001832595793530345,-0.006108652334660292,0.003054326167330146
1790333691441443300,1.901443359375,-0.0024434609804302454,0.018325956538319588,0.007941247895359993
1790333691456948500,1.916948486328125,0.025045474991202354,0.0910189226269722,0.042760565876960754
1790333691473447700,1.93344775390625,0.022602014243602753,0.03726277872920036,0.05192354694008827
1790333691489936000,1.949935791015625,-0.00733038317412138,-0.0757472887635231,0.042760565876960754
1790333691506409200,1.9664091796875,-0.02626720629632473,-0.06719517707824707,0.045204028487205505
1790333691522905900,1.98290576171875,-0.012217304669320583,0.0507018156349659,0.05253441259264946
1790333691539375000,1.999375,0.02382374368607998,0.1472185254096985,0.05864306539297104
1790333691555840500,2.015840576171875,0.007941247895359993,0.01466076634824276,0.04886921867728233
1790333691572319000,2.032319091796875,-0.01710422709584236,-0.07696902006864548,0.051312681287527084
1790333691588809000,2.04880908203125,-0.03481931984424591,-0.08368854224681854,0.04764748737215996
1790333691605279000,2.065279052734375,-0.018936822190880775,0.1362229436635971,0.07024950534105301
1790333691621778700,2.08177880859375,-0.00366519158706069,0.12278391420841217,0.04153883829712868
1790333691638253800,2.09825390625,-0.02015855349600315,-0.0959058403968811,-0.029932396486401558
1790333691654721300,2.11472119140625,-0.03848451003432274,-0.1966986060142517,-0.06352998316287994
1790333691671216600,2.131216552734375,-0.05619960278272629,-0.20341812074184418,-0.06475171446800232
1790333691687716000,2.147716064453125,-0.045204028487205505,-0.16065755486488342,-0.051312681287527084
1790333691704225000,2.16422509765625,-0.07941248267889023,-0.2724458873271942,-0.060475658625364304
1790333691720695600,2.180695556640625,-0.10506882518529892,-0.31154128909111023,-0.05925392732024193
1790333691737151700,2.19715185546875,-0.08857546001672745,-0.24068090319633484,-0.08796459436416626
1790333691753596700,2.2135966796875,0.003054326167330146,-0.13011430203914642,-0.1612684279680252
1790333691770099500,2.230099365234375,0.07452555745840073,-0.004886921960860491,-0.2028072625398636
1790333691786563600,2.2465634765625,0.04703662544488907,0.021991148591041565,-0.1618792861700058
1790333691803030800,2.26303076171875,0.009773843921720982,-0.018325956538319588,-0.09346238523721695
1790333691819563300,2.279563232421875,0.004886921960860491,-0.02382374368607998,-0.054367005825042725
1790333691836055600,2.2960556640625,0.04153883829712868,0.06963863968849182,-0.03420845419168472
1790333691852555500,2.312555419921875,0.014049900695681572,-0.05497787147760391,-0.06169738993048668
1790333691869033200,2.329033203125,-0.007941247895359993,-0.13744467496871948,-0.07391469180583954
1790333691885497600,2.34549755859375,-0.009162978269159794,-0.08491026610136032,-0.0757472887635231
1790333691901973800,2.361973876953125,0.03481931984424591,0.09346238523721695,-0.05864306539297104
1790333691918441500,2.37844140625,0.03726277872920036,0.10323622822761536,-0.051312681287527084
1790333691934920400,2.39492041015625,0.019547687843441963,-0.007941247895359993,-0.04092797264456749
1790333691951405800,2.41140576171875,0.016493361443281174,-0.05497787147760391,-0.01771509274840355
1790333691967902700,2.42790283203125,0.033597588539123535,-0.0024434609804302454,0.022602014243602753
1790333691984401000,2.44440087890625,0.06475171446800232,0.08307767659425735,0.05314527451992035
1790333692000851200,2.460851318359375,0.05009094998240471,-0.009773843921720982,0.0354301854968071
1790333692017328400,2.477328369140625,0.04398229718208313,-0.025045474991202354,0.02321287989616394
1790333692033806600,2.493806640625,0.04642575979232788,0,0.012217304669320583
1790333692050253600,2.510253662109375,0.07452555745840073,0.11667526513338089,0.02626720629632473
1790333692066643700,2.526643798828125,0.06719517707824707,0.07635815441608429,0.029932396486401558
1790333692083113200,2.54311328125,0.03237585723400116,-0.010995574295520782,0.04703662544488907
1790333692099585000,2.5595849609375,0.012217304669320583,-0.012217304669320583,0.054367005825042725
1790333692116078800,2.576078857421875,0.022602014243602753,0.039706241339445114,0.030543262138962746
1790333692131614200,2.5916142578125,0.05314527451992035,0.10934487730264664,0.009162978269159794
1790333692148076800,2.608076904296875,0.021991148591041565,0.03237585723400116,-0.021380282938480377
1790333692164558800,2.624558837890625,-0.012828170321881771,-0.033597588539123535,-0.012828170321881771
1790333692180988000,2.64098779296875,-0.009162978269159794,0.005497787147760391,-0.007941247895359993
1790333692197345500,2.657345458984375,0.039706241339445114,0.1062905490398407,-0.006719517521560192
1790333692213873400,2.673873291015625,0.06352998316287994,0.06963863968849182,-0.025656340643763542
1790333692230390000,2.69039013671875,0.0354301854968071,-0.056810468435287476,-0.04092797264456749
1790333692246852600,2.7068525390625,0.015271631069481373,-0.06719517707824707,-0.02015855349600315
1790333692263387000,2.723386962890625,0.02076941914856434,0.01160643994808197,0.006108652334660292
1790333692279888100,2.73988818359375,0.05253441259264946,0.1618792861700058,0.02871066704392433
1790333692296384500,2.756384521484375,0.029932396486401558,0.08307767659425735,0.001832595793530345
1790333692312876300,2.772876220703125,-0.010995574295520782,-0.04948008432984352,-0.039706241339445114
1790333692329335800,2.789335693359375,-0.01466076634824276,-0.05314527451992035,-0.06536258012056351
1790333692345865500,2.805865478515625,0.015271631069481373,0.04948008432984352,-0.06414084881544113
1790333692362332700,2.822332763671875,0.05314527451992035,0.11178833991289139,-0.06291911751031876
1790333692378850800,2.838850830078125,0.005497787147760391,-0.006719517521560192,-0.0708603709936142
1790333692395363300,2.85536328125,-0.02382374368607998,-0.05192354694008827,-0.05009094998240471
1790333692411822300,2.871822265625,-0.009773843921720982,0.014049900695681572,-0.02687807008624077
1790333692428311000,2.88831103515625,0.048258353024721146,0.16554448008537292,0
1790333692444778500,2.904778564453125,0.029932396486401558,0.06841690838336945,-0.018325956538319588
1790333692461252400,2.92125244140625,-0.009162978269159794,-0.04398229718208313,-0.039706241339445114
1790333692477731300,2.9377314453125,-0.016493361443281174,-0.08307767659425735,-0.051312681287527084
1790333692494189600,2.954189453125,-0.0006108652451075613,0.018325956538319588,-0.03176499158143997
1790333692510679000,2.970678955078125,0.015271631069481373,0.13255776464939117,-0.021991148591041565
1790333692527161300,2.987161376953125,-0.036041051149368286,0.04642575979232788,-0.04703662544488907
1790333692543639800,3.003639892578125,-0.05009094998240471,-0.07024950534105301,-0.07941248267889023
1790333692560141000,3.02014111328125,-0.03298672288656235,-0.12217304855585098,-0.08796459436416626
1790333692576643300,3.036643310546875,0.024434609338641167,-0.10751228034496307,-0.06536258012056351
1790333692593143800,3.053143798828125,-0.006108652334660292,-0.2724458873271942,-0.06536258012056351
1790333692609586000,3.0695859375,-0.04153883829712868,-0.3274237811565399,-0.060475658625364304
1790333692626081300,3.086081298828125,-0.03726277872920036,-0.2736676335334778,-0.09346238523721695
1790333692642570000,3.102570068359375,0.027488935738801956,-0.08185594528913498,-0.1514945775270462
1790333692659040300,3.119040283203125,0.06719517707824707,0.06963863968849182,-0.16004669666290283
1790333692675536400,3.135536376953125,0.03848451003432274,0.09529497474431992,-0.10323622822761536
1790333692691983600,3.151983642578125,0.004886921960860491,0.08735372871160507,-0.016493361443281174
1790333692708489200,3.1684892578125,-0.012828170321881771,0.06352998316287994,0.04459316283464432
1790333692724988000,3.18498779296875,0.016493361443281174,0.12828169763088226,0.08796459436416626
1790333692741454600,3.20145458984375,0.007941247895359993,-0.00855211354792118,0.05375614017248154
1790333692757984800,3.21798486328125,-0.009773843921720982,-0.07941248267889023,0.02321287989616394
1790333692774488000,3.234488037109375,-0.006108652334660292,0.00427605677396059,0.015271631069481373
1790333692790996000,3.250995849609375,0.025045474991202354,0.1264491081237793,0.018325956538319588
1790333692807465700,3.2674658203125,0.05497787147760391,0.11850785464048386,0.015271631069481373
1790333692823852000,3.28385205078125,0.033597588539123535,-0.02382374368607998,-0.003054326167330146
1790333692840359000,3.30035888671875,0.014049900695681572,-0.09834930300712585,-0.012828170321881771
1790333692856831500,3.31683154296875,0.012828170321881771,-0.059864792972803116,-0.022602014243602753
1790333692873335800,3.333335693359375,0.042760565876960754,0.10445795953273773,-0.016493361443281174
1790333692889792300,3.349792236328125,0.025656340643763542,0.06841690838336945,-0.04459316283464432
1790333692906249500,3.36624951171875,-0.007941247895359993,-0.02932153269648552,-0.06841690838336945
1790333692922748700,3.382748779296875,-0.009162978269159794,-0.02015855349600315,-0.05009094998240471
1790333692939219700,3.3992197265625,0.0012217304902151227,0.06780604273080826,-0.014049900695681572
1790333692955714800,3.41571484375,0.039095375686883926,0.16798794269561768,0.015271631069481373
1790333692972209200,3.432209228515625,0.02687807008624077,0.056810468435287476,0.0012217304902151227
1790333692988664600,3.44866455078125,0.013439035043120384,-0.045204028487205505,-0.01038470957428217
1790333693005192200,3.465192138671875,0.024434609338641167,-0.025656340643763542,-0.004886921960860491
1790333693021691400,3.48169140625,0.05192354694008827,0.0708603709936142,0.003054326167330146
1790333693038166300,3.498166259765625,0.060475658625364304,0.07269296050071716,-0.001832595793530345
1790333693054574600,3.51457470703125,0.019547687843441963,-0.04642575979232788,-0.01710422709584236
1790333693071041800,3.531041748046875,-0.012217304669320583,-0.10506882518529892,-0.009162978269159794
1790333693087428600,3.5474287109375,-0.012828170321881771,-0.04459316283464432,0.007941247895359993
1790333693103900200,3.563900146484375,0.029932396486401558,0.10567969083786011,0.018325956538319588
1790333693119339800,3.57933984375,0.013439035043120384,0.06780604273080826,-0.007941247895359993
1790333693135785500,3.595785400390625,-0.04703662544488907,0.04581489413976669,-0.0354301854968071
1790333693152241700,3.61224169921875,-0.05925392732024193,-0.1111774742603302,-0.11789698898792267
1790333693168739300,3.6287392578125,-0.022602014243602753,-0.13561208546161652,-0.17898350954055786
1790333693185214000,3.6452138671875,-0.015271631069481373,-0.15332718193531036,-0.15393804013729095
1790333693201729800,3.661729736328125,-0.10751228034496307,-0.3280346393585205,-0.06536258012056351
1790333693218226400,3.678226318359375,-0.11484266817569733,-0.33292156457901,0.06352998316287994
1790333693234697500,3.694697509765625,-0.029932396486401558,-0.23151792585849762,0.10873401165008545
1790333693251191000,3.71119091796875,0.12950342893600464,0.0708603709936142,0.0806342139840126
1790333693267709700,3.727709716796875,0.16493362188339233,0.22907446324825287,0.02687807008624077
1790333693284175400,3.74417529296875,0.0555887371301651,0.17837265133857727,0.0012217304902151227
1790333693300701000,3.760700927734375,-0.03298672288656235,0.13500121235847473,-0.009162978269159794
1790333693317191200,3.777191162109375,-0.06352998316287994,0.13805554807186127,-0.009773843921720982
1790333693333706000,3.7937060546875,-0.04948008432984352,0.12339477986097336,-0.012217304669320583
1790333693350174700,3.8101748046875,-0.07024950534105301,-0.0354301854968071,-0.015271631069481373
1790333693366625000,3.826625,-0.06169738993048668,-0.0910189226269722,0.01038470957428217
1790333693383138800,3.843138916015625,-0.019547687843441963,0.007941247895359993,0.04764748737215996
1790333693399614700,3.85961474609375,0.04703662544488907,0.17898350954055786,0.07819075137376785
1790333693416138200,3.87613818359375,0.07941248267889023,0.16982053220272064,0.05375614017248154
1790333693432611300,3.892611328125,0.06780604273080826,0.10812314599752426,0.025045474991202354
1790333693449092900,3.9090927734375,0.06291911751031876,0.07513642311096191,0.01038470957428217
1790333693465602000,3.92560205078125,0.07696902006864548,0.10201449692249298,0.009773843921720982
1790333693482067000,3.94206689453125,0.10201449692249298,0.24434609711170197,0.03176499158143997
1790333693498558700,3.958558837890625,0.07391469180583954,0.22052235901355743,0.02321287989616394
1790333693515020800,3.975020751953125,0.02382374368607998,0.15760323405265808,0.015882495790719986
1790333693531511300,3.99151123046875,0.018936822190880775,0.1417207419872284,0.02626720629632473
1790333693548007700,4.008007568359375,0.05864306539297104,0.14844025671482086,0.04092797264456749
1790333693564471800,4.024471923828125,0.08491026610136032,0.10812314599752426,0.027488935738801956
1790333693580972300,4.04097216796875,0.042760565876960754,-0.05375614017248154,0.003054326167330146
1790333693597436700,4.057436767578125,0.018325956538319588,-0.1362229436635971,-0.009162978269159794
1790333693613900800,4.07390087890625,0.03420845419168472,-0.08735372871160507,-0.016493361443281174
1790333693630413800,4.090413818359375,0.0861319974064827,0.05314527451992035,-0.006719517521560192
1790333693646871300,4.106871337890625,0.06108652427792549,-0.04764748737215996,-0.012217304669320583
1790333693663369200,4.123369140625,0.022602014243602753,-0.1716531366109848,-0.003054326167330146
1790333693679819800,4.13981982421875,0.02321287989616394,-0.16737708449363708,0.005497787147760391
1790333693696283100,4.156283203125,0.04703662544488907,-0.02015855349600315,0.033597588539123535
1790333693712728800,4.172728759765625,0.06536258012056351,0.03481931984424591,0.039095375686883926
1790333693729187600,4.1891875,0.004886921960860491,-0.10262536257505417,0.016493361443281174
1790333693745687000,4.20568701171875,-0.02321287989616394,-0.10812314599752426,0.02382374368607998
1790333693762186000,4.22218603515625,-0.015271631069481373,-0.060475658625364304,0.016493361443281174
1790333693778687700,4.238687744140625,0.03176499158143997,0.06352998316287994,0.02382374368607998
1790333693795141400,4.255141357421875,0.009773843921720982,-0.05192354694008827,0.00733038317412138
1790333693811583000,4.2715830078125,-0.013439035043120384,-0.14905111491680145,0.01160643994808197
1790333693828096800,4.2880966796875,-0.012217304669320583,-0.1362229436635971,0.02321287989616394
1790333693844559600,4.3045595703125,0.01038470957428217,-0.02932153269648552,0.051312681287527084
1790333693861065500,4.3210654296875,0.039706241339445114,0.039095375686883926,0.07696902006864548
1790333693877577000,4.337576904296875,0.016493361443281174,-0.10873401165008545,0.07941248267889023
1790333693894054400,4.354054443359375,0.018936822190880775,-0.15454891324043274,0.09040805697441101
1790333693910549800,4.3705498046875,0.06352998316287994,-0.15393804013729095,0.10201449692249298
1790333693927015700,4.387015625,0.15332718193531036,-0.13439035415649414,0.13072516024112701
1790333693943538400,4.403538330078125,0.1771509200334549,-0.29565876722335815,0.1417207419872284
1790333693960004900,4.4200048828125,0.15454891324043274,-0.5057964324951172,0.1661553531885147
1790333693976436700,4.436436767578125,0.15332718193531036,-0.5674937963485718,0.2064724564552307
1790333693992928300,4.45292822265625,0.18509216606616974,-0.4990769028663635,0.2272418737411499
1790333694009413400,4.469413330078125,0.2223549485206604,-0.3799581825733185,0.19792033731937408
1790333694025851100,4.48585107421875,0.15882496535778046,-0.3744603991508484,0.08552113175392151
1790333694042397200,4.502397216796875,0.05192354694008827,-0.251676470041275,-0.08796459436416626
1790333694058837200,4.518837158203125,-0.02382374368607998,-0.02932153269648552,-0.2528982162475586
1790333694075304200,4.53530419921875,-0.07635815441608429,0.2431243658065796,-0.39217549562454224
1790333694091769300,4.551769287109375,-0.12034045159816742,0.3494149148464203,-0.46303585171699524
1790333694108207600,4.56820751953125,-0.20525072515010834,0.242513507604599,-0.4746423065662384
1790333694124700000,4.584699951171875,-0.2577851414680481,0.2070833146572113,-0.42271876335144043
1790333694141137200,4.60113720703125,-0.2583959996700287,0.3066543638706207,-0.3488040566444397
1790333694157598200,4.61759814453125,-0.2076941877603531,0.4740314185619354,-0.2730567753314972
1790333694174112500,4.634112548828125,-0.19120082259178162,0.4147774875164032,-0.242513507604599
1790333694190578000,4.650577880859375,-0.17959438264369965,0.26145032048225403,-0.19853121042251587
1790333694207065900,4.66706591796875,-0.12339477986097336,0.16371189057826996,-0.1160643994808197
1790333694223526400,4.6835263671875,-0.010995574295520782,0.14538592100143433,-0.0012217304902151227
1790333694240012000,4.700011962890625,0.08979719132184982,0.06108652427792549,0.04459316283464432
1790333694256469000,4.716468994140625,0.08185594528913498,-0.19303341209888458,0.00733038317412138
1790333694272950500,4.732950439453125,0.04459316283464432,-0.3689626157283783,0.009162978269159794
1790333694289453000,4.749453125,0.039706241339445114,-0.5002986192703247,0.05619960278272629
1790333694305887500,4.765887451171875,0.08735372871160507,-0.5070181488990784,0.14538592100143433
1790333694322380300,4.78238037109375,0.07880161702632904,-0.5442809462547302,0.16432274878025055
1790333694338816000,4.79881591796875,0.016493361443281174,-0.5253441333770752,0.11056660860776901
1790333694355277800,4.81527783203125,-0.016493361443281174,-0.32559117674827576,0.02382374368607998
1790333694371760400,4.831760498046875,0.01160643994808197,-0.021380282938480377,-0.0659734457731247
1790333694388230700,4.848230712890625,0.0659734457731247,0.16065755486488342,-0.1264491081237793
1790333694404752100,4.864752197265625,0.05192354694008827,0.06475171446800232,-0.13561208546161652
1790333694421222100,4.88122216796875,0.05864306539297104,-0.04886921867728233,-0.07391469180583954
1790333694437736700,4.89773681640625,0.08979719132184982,-0.08857546001672745,0.013439035043120384
1790333694454216000,4.9142158203125,0.14049901068210602,-0.004886921960860491,0.10201449692249298
1790333694470688500,4.9306884765625,0.11667526513338089,-0.05925392732024193,0.1362229436635971
1790333694487185700,4.947185546875,0.06291911751031876,-0.12767083942890167,0.1411098688840866
1790333694503701500,4.963701416015625,0.03176499158143997,-0.1264491081237793,0.13439035415649414
1790333694520191200,4.980191162109375,0.012217304669320583,-0.08185594528913498,0.12461651116609573
1790333694536695000,4.996695068359375,0.007941247895359993,0.01038470957428217,0.10812314599752426
1790333694553170400,5.01317041015625,-0.04581489413976669,-0.06414084881544113,0.051312681287527084
1790333694569666600,5.02966650390625,-0.0806342139840126,-0.09651670604944229,-0.001832595793530345
1790333694586122500,5.04612255859375,-0.07941248267889023,-0.04948008432984352,-0.027488935738801956
1790333694602626800,5.062626708984375,-0.039706241339445114,0.06169738993048668,-0.02015855349600315
1790333694619105500,5.07910546875,-0.012217304669320583,0.05925392732024193,-0.006719517521560192
1790333694635564500,5.095564453125,-0.036041051149368286,-0.06658431142568588,0.0006108652451075613
1790333694652088000,5.112088134765625,-0.0507018156349659,-0.14294247329235077,0.01038470957428217
1790333694668551400,5.128551513671875,-0.04214970022439957,-0.10567969083786011,0.021380282938480377
1790333694685068300,5.145068359375,0.04153883829712868,0.14844025671482086,0.03176499158143997
1790333694701531000,5.16153076171875,0.0708603709936142,0.13377949595451355,-0.003054326167330146
1790333694717979000,5.177978759765625,0.012217304669320583,-0.06291911751031876,-0.018936822190880775
1790333694734496300,5.194496337890625,-0.03237585723400116,-0.11362093687057495,0.00855211354792118
1790333694750983400,5.2109833984375,0.01160643994808197,0.11911872029304504,0.05314527451992035
1790333694767474200,5.22747412109375,0.07391469180583954,0.2767219543457031,0.05803219974040985
1790333694783973400,5.243973388671875,0.03420845419168472,0.04214970022439957,0.001832595793530345
1790333694800419800,5.260419921875,-0.030543262138962746,-0.19853121042251587,-0.04214970022439957
1790333694816924700,5.276924560546875,-0.04337143152952194,-0.27550023794174194,-0.0659734457731247
1790333694833394000,5.293393798828125,0.05619960278272629,0.039706241339445114,-0.05009094998240471
1790333694849834000,5.309833984375,0.11362093687057495,0.15271630883216858,-0.060475658625364304
1790333694866358300,5.326358154296875,0.08552113175392151,-0.01466076634824276,-0.08796459436416626
1790333694882857700,5.342857666015625,0.07391469180583954,-0.16310101747512817,-0.09162978827953339
1790333694899344600,5.3593447265625,0.09407325088977814,-0.13255776464939117,-0.04337143152952194
1790333694915839500,5.375839599609375,0.17470745742321014,0.11362093687057495,0.04459316283464432
1790333694932321800,5.39232177734375,0.13377949595451355,0.05803219974040985,0.07696902006864548
1790333694948845300,5.40884521484375,0.05864306539297104,-0.06108652427792549,0.08491026610136032
1790333694965280500,5.425280517578125,-0.0024434609804302454,-0.09834930300712585,0.06963863968849182
1790333694981802200,5.44180224609375,0.04398229718208313,0.15271630883216858,0.06169738993048668
1790333694998288000,5.458287841796875,0.0555887371301651,0.17531833052635193,0.007941247895359993
1790333695014776000,5.474776123046875,-0.014049900695681572,-0.03481931984424591,-0.06963863968849182
1790333695031271700,5.491271728515625,-0.08002334833145142,-0.20463985204696655,-0.12278391420841217
1790333695047731200,5.507731201171875,-0.0659734457731247,-0.10262536257505417,-0.11484266817569733
1790333695064192000,5.52419189453125,-0.0006108652451075613,0.08857546001672745,-0.07024950534105301
1790333695080652500,5.540652587890625,-0.048258353024721146,-0.04092797264456749,-0.05619960278272629
1790333695097129700,5.557129638671875,-0.09224065393209457,-0.16982053220272064,-0.03176499158143997
1790333695113628200,5.573628173828125,-0.09162978827953339,-0.14294247329235077,0.0012217304902151227
1790333695130121000,5.590120849609375,0.009773843921720982,0.16004669666290283,0.05192354694008827
1790333695146645500,5.6066455078125,0.03848451003432274,0.18448130786418915,0.02382374368607998
1790333695163099400,5.623099365234375,-0.029932396486401558,-0.012217304669320583,-0.04214970022439957
1790333695179591400,5.63959130859375,-0.08124507963657379,-0.1466076523065567,-0.10506882518529892
1790333695196087300,5.65608740234375,0.03298672288656235,0.21624629199504852,-0.17531833052635193
1790333695212560400,5.672560302734375,0.17409659922122955,0.5705481171607971,-0.33597588539123535
1790333695229028900,5.68902880859375,0.10201449692249298,0.5619960427284241,-0.5009095072746277
1790333695245527800,5.70552783203125,-0.05619960278272629,0.3188716471195221,-0.4948008358478546
1790333695261997000,5.7219970703125,-0.1417207419872284,0.2816088795661926,-0.34574973583221436
1790333695278448000,5.7384482421875,-0.11545353382825851,0.24862214922904968,-0.13744467496871948
1790333695294946000,5.754946044921875,-0.1875356286764145,-0.012217304669320583,0.009773843921720982
1790333695311468800,5.77146875,-0.27122417092323303,-0.21074850857257843,0.06414084881544113
1790333695327966000,5.787966064453125,-0.20952677726745605,-0.09651670604944229,0.03176499158143997
1790333695344437800,5.804437744140625,-0.13255776464939117,-0.00855211354792118,-0.059864792972803116
1790333695360937500,5.8209375,-0.12095131725072861,-0.012828170321881771,-0.13439035415649414
1790333695377402600,5.837402587890625,-0.0507018156349659,0.152105450630188,-0.15515977144241333
1790333695393900300,5.853900390625,-0.006719517521560192,0.10873401165008545,-0.1514945775270462
1790333695410373400,5.870373291015625,-0.04703662544488907,-0.08185594528913498,-0.1111774742603302
1790333695426888200,5.88688818359375,-0.05925392732024193,-0.08491026610136032,-0.04092797264456749
1790333695443385300,5.90338525390625,-0.08368854224681854,-0.21930062770843506,-0.018936822190880775
1790333695459846700,5.9198466796875,-0.10445795953273773,-0.2565633952617645,-0.02626720629632473
1790333695476338700,5.936338623046875,-0.0555887371301651,-0.06414084881544113,-0.0354301854968071
1790333695492839400,5.95283935546875,-0.01771509274840355,-0.00855211354792118,-0.08979719132184982
1790333695509313000,5.96931298828125,0.015882495790719986,0.005497787147760391,-0.13439035415649414
1790333695525817900,5.98581787109375,0.09162978827953339,0.06352998316287994,-0.14233160018920898
1790333695542308400,6.002308349609375,0.11728613078594208,-0.04642575979232788,-0.1264491081237793
1790333695558827300,6.0188271484375,0.09957103431224823,-0.06658431142568588,-0.07819075137376785
1790333695575320300,6.0353203125,0.08491026610136032,-0.04764748737215996,-0.05009094998240471
1790333695591758600,6.051758544921875,0.04581489413976669,-0.12767083942890167,-0.05009094998240471
1790333695608284700,6.06828466796875,0.02871066704392433,-0.11545353382825851,-0.05314527451992035
1790333695624780500,6.084780517578125,0.03848451003432274,-0.1417207419872284,-0.0708603709936142
1790333695641275400,6.101275390625,0.05925392732024193,-0.10751228034496307,-0.04886921867728233
1790333695657757200,6.117757080078125,0.08307767659425735,-0.03420845419168472,-0.005497787147760391
1790333695674239000,6.134239013671875,0.08979719132184982,-0.0555887371301651,0.02871066704392433
1790333695690710500,6.15071044921875,0.10567969083786011,0.0006108652451075613,0.08124507963657379
1790333695707148300,6.167148193359375,0.09285151958465576,-0.01160643994808197,0.12889257073402405
1790333695723611000,6.18361083984375,0.06169738993048668,0.028099801391363144,0.18448130786418915
1790333695740072200,6.200072265625,0.015882495790719986,0.04642575979232788,0.22846360504627228
1790333695756563200,6.216563232421875,-0.04153883829712868,-0.039095375686883926,0.23945917189121246
1790333695773059000,6.23305908203125,-0.039706241339445114,0.016493361443281174,0.26083946228027344
1790333695789524500,6.2495244140625,-0.045204028487205505,-0.04398229718208313,0.2528982162475586
1790333695806016000,6.26601611328125,-0.036041051149368286,-0.06658431142568588,0.24984388053417206
1790333695822454000,6.2824541015625,-0.015882495790719986,-0.056810468435287476,0.24678955972194672
1790333695838946800,6.29894677734375,-0.03176499158143997,-0.1270599663257599,0.2064724564552307
1790333695855436800,6.315436767578125,-0.039095375686883926,-0.12828169763088226,0.14844025671482086
1790333695871914000,6.3319140625,-0.07513642311096191,-0.1716531366109848,0.07147123664617538
1790333695888409000,6.3484091796875,-0.12095131725072861,-0.26022860407829285,-0.012217304669320583
1790333695904855600,6.36485546875,-0.1362229436635971,-0.25106561183929443,-0.07208210229873657
1790333695921348600,6.3813486328125,-0.14049901068210602,-0.17348572611808777,-0.11972958594560623
1790333695937835800,6.397835693359375,-0.1765400618314743,-0.20952677726745605,-0.16798794269561768
1790333695954273800,6.414273681640625,-0.20891591906547546,-0.2480112910270691,-0.17837265133857727
1790333695970767400,6.430767333984375,-0.1716531366109848,-0.2015855312347412,-0.12828169763088226
1790333695987246300,6.447246337890625,-0.1411098688840866,-0.21013765037059784,-0.0555887371301651
1790333696003711700,6.463711669921875,-0.13866640627384186,-0.1765400618314743,0.04092797264456749
1790333696020176100,6.480176025390625,-0.15882496535778046,-0.13744467496871948,0.11239920556545258
1790333696036641000,6.49664111328125,-0.17348572611808777,-0.15821409225463867,0.11239920556545258
1790333696053108700,6.513108642578125,-0.1569923609495163,-0.11301007121801376,0.08735372871160507
1790333696069492700,6.52949267578125,-0.1270599663257599,-0.05314527451992035,0.05497787147760391
1790333696085995800,6.545995849609375,-0.09224065393209457,-0.05192354694008827,0.01466076634824276
1790333696102422500,6.562422607421875,-0.06963863968849182,-0.09712757170200348,-0.001832595793530345
1790333696118891300,6.578891357421875,-0.03237585723400116,-0.07880161702632904,0.02321287989616394
1790333696135397400,6.5953974609375,-0.021991148591041565,-0.10262536257505417,0.04703662544488907
1790333696151861200,6.611861328125,-0.036041051149368286,-0.1258382350206375,0.07024950534105301
1790333696168378400,6.62837841796875,-0.01771509274840355,-0.021380282938480377,0.09712757170200348
1790333696184876300,6.644876220703125,0.003054326167330146,0.04886921867728233,0.11667526513338089
1790333696201341000,6.6613408203125,-0.006108652334660292,0.05497787147760391,0.13500121235847473
1790333696217833000,6.6778330078125,-0.004886921960860491,0.04459316283464432,0.152105450630188
1790333696234354000,6.69435400390625,-0.012217304669320583,-0.05619960278272629,0.1313360333442688
1790333696250844400,6.710844482421875,0.0006108652451075613,-0.07452555745840073,0.09896016865968704
1790333696267384600,6.727384521484375,0.00855211354792118,-0.07513642311096191,0.04153883829712868
1790333696283840300,6.74384033203125,-0.001832595793530345,-0.05925392732024193,-0.005497787147760391
1790333696300374300,6.760374267578125,-0.018936822190880775,-0.08307767659425735,-0.0403171069920063
1790333696316843000,6.776843017578125,-0.03481931984424591,-0.10934487730264664,-0.06475171446800232
1790333696333336800,6.7933369140625,-0.00366519158706069,-0.09346238523721695,-0.07208210229873657
1790333696349805000,6.80980517578125,-0.006108652334660292,-0.15882496535778046,-0.07819075137376785
1790333696366239200,6.8262392578125,0.039095375686883926,-0.07635815441608429,-0.056810468435287476
1790333696382701600,6.84270166015625,0.05864306539297104,-0.11056660860776901,-0.056810468435287476
1790333696399162000,6.859162109375,0.06169738993048668,-0.15760323405265808,-0.0507018156349659
1790333696415624400,6.87562451171875,0.0507018156349659,-0.22479841113090515,-0.04948008432984352
1790333696432109800,6.89210986328125,0.030543262138962746,-0.24007004499435425,-0.04459316283464432
1790333696448578000,6.908578125,0.025656340643763542,-0.1771509200334549,-0.01466076634824276
1790333696465048000,6.925048095703125,0.012217304669320583,-0.03726277872920036,0.033597588539123535
1790333696481553000,6.941552978515625,0.01160643994808197,0.08246681094169617,0.08246681094169617
1790333696498022100,6.958022216796875,-0.018936822190880775,0.07147123664617538,0.09651670604944229
1790333696514548500,6.974548583984375,-0.01771509274840355,0.11178833991289139,0.08674286305904388
1790333696531046700,6.991046630859375,-0.056810468435287476,0.029932396486401558,0.03726277872920036
1790333696547579100,7.0075791015625,-0.1160643994808197,-0.01038470957428217,-0.007941247895359993
1790333696564044000,7.0240439453125,-0.22296582162380219,-0.1875356286764145,-0.04703662544488907
1790333696580509400,7.040509521484375,-0.32009339332580566,-0.19608774781227112,-0.03237585723400116
1790333696596983800,7.05698388671875,-0.37140607833862305,-0.1716531366109848,-0.007941247895359993
1790333696613425200,7.073425048828125,-0.384845107793808,-0.09957103431224823,0.025045474991202354
1790333696629951500,7.089951416015625,-0.304210901260376,0.05742133408784866,0.06841690838336945
1790333696646427100,7.10642724609375,-0.17959438264369965,0.15943582355976105,0.08918632566928864
1790333696662912300,7.122912353515625,-0.09957103431224823,0.07635815441608429,0.07147123664617538
1790333696679412200,7.139412109375,-0.08735372871160507,-0.15271630883216858,0.01771509274840355
1790333696695858400,7.1558583984375,-0.056810468435287476,-0.19486601650714874,-0.007941247895359993
1790333696712384300,7.17238427734375,-0.08674286305904388,-0.2571742534637451,-0.013439035043120384
1790333696728877800,7.1888779296875,-0.11362093687057495,-0.12461651116609573,0.031154127791523933
1790333696745370000,7.2053701171875,-0.1160643994808197,0.02687807008624077,0.06291911751031876
1790333696761878300,7.221878173828125,-0.0757472887635231,0.11239920556545258,0.039095375686883926
1790333696778357800,7.238357666015625,-0.05803219974040985,0.006719517521560192,-0.016493361443281174
1790333696794852600,7.2548525390625,-0.08307767659425735,-0.1111774742603302,-0.06169738993048668
1790333696811308300,7.271308349609375,-0.14355333149433136,-0.1973094791173935,-0.06780604273080826
1790333696827773400,7.2877734375,-0.19486601650714874,-0.1820378452539444,-0.05192354694008827
1790333696844232200,7.304232177734375,-0.12339477986097336,0.01466076634824276,-0.01771509274840355
1790333696860708000,7.3207080078125,-0.018936822190880775,0.11545353382825851,0.006108652334660292
1790333696877184800,7.337184814453125,0.039095375686883926,0.03420845419168472,0.019547687843441963
1790333696893662500,7.353662353515625,0.018325956538319588,-0.14233160018920898,0.030543262138962746
1790333696910185200,7.370185302734375,-0.00427605677396059,-0.16859880089759827,0.056810468435287476
1790333696926687700,7.386687744140625,-0.01771509274840355,-0.06169738993048668,0.07757988572120667
1790333696943164400,7.403164306640625,-0.060475658625364304,0.059864792972803116,0.06902777403593063
1790333696959656400,7.419656494140625,-0.17531833052635193,0.07330382615327835,0.03298672288656235
1790333696976145000,7.436144775390625,-0.2718350291252136,0.03726277872920036,-0.028099801391363144
1790333696992636400,7.452636474609375,-0.27488934993743896,0.01038470957428217,-0.11545353382825851
1790333697009145600,7.4691455078125,-0.2223549485206604,0.022602014243602753,-0.182648703455925
1790333697025609000,7.48560888671875,-0.15393804013729095,0.07208210229873657,-0.21441370248794556
1790333697042124800,7.502124755859375,-0.11484266817569733,0.022602014243602753,-0.24678955972194672
1790333697058585300,7.51858544921875,-0.08429940044879913,-0.03237585723400116,-0.26145032048225403
1790333697075011000,7.535010986328125,-0.09773843735456467,-0.10384709388017654,-0.23579397797584534
1790333697091509200,7.55150927734375,-0.2125810980796814,-0.27488934993743896,-0.18448130786418915
1790333697107979300,7.567979248046875,-0.36529740691185,-0.38117989897727966,-0.11789698898792267
1790333697124520700,7.584520751953125,-0.4337143301963806,-0.19914206862449646,-0.04092797264456749
1790333697141002200,7.601002197265625,-0.4544837474822998,-0.018325956538319588,0.00427605677396059
1790333697157497900,7.617497802734375,-0.513126790523529,0.08674286305904388,0.024434609338641167
1790333697174006000,7.634006103515625,-0.5583308339118958,0.34147366881370544,0.056810468435287476
1790333697190462700,7.650462646484375,-0.5528330206871033,0.5619960427284241,0.07757988572120667
1790333697206928600,7.6669287109375,-0.5564982295036316,0.607810914516449,0.10690141469240189
1790333697223400400,7.683400390625,-0.5436700582504272,0.6481280326843262,0.18509216606616974
1790333697239846100,7.69984619140625,-0.46242499351501465,0.7024950385093689,0.2736676335334778
1790333697256321500,7.716321533203125,-0.3591887652873993,0.6994407176971436,0.32986724376678467
1790333697272767500,7.732767578125,-0.2736676335334778,0.45204028487205505,0.3188716471195221
1790333697289327600,7.74932763671875,-0.20036379992961884,0.1508837193250656,0.2174680233001709
1790333697305800000,7.765800048828125,-0.0959058403968811,-0.20463985204696655,0.006108652334660292
1790333697322272300,7.782272216796875,0.022602014243602753,-0.43249258399009705,-0.20341812074184418
1790333697338751500,7.79875146484375,0.11056660860776901,-0.5106833577156067,-0.35185837745666504
1790333697355199200,7.81519921875,0.22968533635139465,-0.3170390725135803,-0.4056145250797272
1790333697371731000,7.83173095703125,0.2834414839744568,-0.1362229436635971,-0.4178318381309509
1790333697388185000,7.84818505859375,0.26939156651496887,-0.02076941914856434,-0.38240164518356323
1790333697404684300,7.864684326171875,0.20402899384498596,0.016493361443281174,-0.313373863697052
1790333697421191700,7.881191650390625,0.14844025671482086,0.10323622822761536,-0.2223549485206604
1790333697437642800,7.897642822265625,0.08552113175392151,0.08124507963657379,-0.17959438264369965
1790333697454175000,7.914175048828125,0.005497787147760391,0.05864306539297104,-0.1918116807937622
1790333697470668800,7.930668701171875,-0.09285151958465576,0.05253441259264946,-0.23884831368923187
1790333697487166000,7.947166015625,-0.14782938361167908,0.19120082259178162,-0.2834414839744568
1790333697503651600,7.963651611328125,-0.15577064454555511,0.27488934993743896,-0.3481931984424591
1790333697520098000,7.98009814453125,-0.1264491081237793,0.24617868661880493,-0.394008070230484
1790333697536629000,7.99662890625,-0.06475171446800232,0.04886921867728233,-0.394008070230484
1790333697553138400,8.013138427734376,0.02076941914856434,-0.1563815027475357,-0.3445279896259308
1790333697569619200,8.029619140625,0.1313360333442688,-0.14844025671482086,-0.2431243658065796
1790333697586114300,8.0461142578125,0.18387043476104736,-0.16004669666290283,-0.15577064454555511
1790333697602610400,8.0626103515625,0.19120082259178162,-0.17959438264369965,-0.06780604273080826
1790333697619111700,8.079111572265624,0.18387043476104736,-0.2272418737411499,-0.031154127791523933
1790333697635605200,8.095605224609375,0.23579397797584534,-0.06169738993048668,0.00366519158706069
1790333697652120600,8.11212060546875,0.32681289315223694,0.17287486791610718,0.04459316283464432
1790333697668593200,8.12859326171875,0.3292563557624817,0.22479841113090515,0.02076941914856434
1790333697685065200,8.145065185546875,0.2816088795661926,0.2070833146572113,-0.02871066704392433
1790333697701559600,8.1615595703125,0.23029619455337524,0.2431243658065796,-0.08857546001672745
1790333697718055400,8.178055419921876,0.2431243658065796,0.3530801236629486,-0.17776179313659668
1790333697734523100,8.194523193359375,0.21380282938480377,0.37690386176109314,-0.3292563557624817
1790333697751006500,8.21100634765625,0.02626720629632473,0.3897320330142975,-0.5723807215690613
1790333697767479600,8.2274794921875,-0.2785545587539673,0.475253164768219,-0.788016140460968
1790333697784006700,8.244006591796875,-0.5461135506629944,0.6976081132888794,-0.8735373020172119
1790333697800441900,8.26044189453125,-0.7635815739631653,0.9639453291893005,-0.8918632864952087
1790333697816919300,8.276919189453125,-0.9822713136672974,1.274264931678772,-0.9731083512306213
1790333697833420300,8.293420166015625,-1.2785409688949585,1.653001308441162,-1.1661417484283447
1790333697849890000,8.30989013671875,-1.5063936710357666,1.860695481300354,-1.338405728340149
1790333697866426000,8.326426025390624,-1.5497651100158691,1.930334210395813,-1.4135421514511108
1790333697882880300,8.34288037109375,-1.4025466442108154,1.8099937438964844,-1.378722906112671
1790333697899355100,8.359355224609375,-1.2797627449035645,1.225395679473877,-1.4288138151168823
1790333697915854300,8.375854248046876,-1.2345587015151978,0.2028072625398636,-1.5424346923828125
1790333697932302300,8.39230224609375,-1.2479976415634155,-0.5247332453727722,-1.5467108488082886
1790333697948790500,8.40879052734375,-1.1374311447143555,-0.911410927772522,-1.379333734512329
1790333697965255200,8.425255126953125,-0.9126327037811279,-1.0103710889816284,-1.1154398918151855
1790333697981696300,8.4416962890625,-0.6548475623130798,-1.06351637840271,-0.7910705208778381
1790333697998194200,8.458194091796875,-0.4398229718208313,-1.187522053718567,-0.5363397002220154
1790333698014665200,8.474665283203125,-0.24068090319633484,-1.2956452369689941,-0.3677408695220947
1790333698031162000,8.491162109375,-0.07513642311096191,-1.2669345140457153,-0.2736676335334778
1790333698047667200,8.507667236328125,0.029932396486401558,-1.2712105512619019,-0.21868975460529327
1790333698064203300,8.524203369140626,0.08491026610136032,-1.5008958578109741,-0.16920967400074005
1790333698080677400,8.540677490234375,0.02015855349600315,-1.4929546117782593,-0.10323622822761536
1790333698097118000,8.557117919921875,-0.16310101747512817,-1.320690631866455,0.03176499158143997
1790333698113643500,8.5736435546875,-0.29138273000717163,-1.086118459701538,0.32986724376678467
1790333698130172000,8.590171875,-0.26511552929878235,-0.8533787727355957,0.5516113042831421
1790333698146561000,8.60656103515625,-0.15393804013729095,-0.6811147332191467,0.6359107494354248
1790333698163046400,8.62304638671875,0.08185594528913498,-0.6120869517326355,0.49724429845809937
1790333698179496700,8.63949658203125,0.23090706765651703,-0.4398229718208313,0.19792033731937408
1790333698196020200,8.656020263671875,0.28588494658470154,-0.17043140530586243,-0.1411098688840866
1790333698212521500,8.672521484375,0.33047810196876526,0.13439035415649414,-0.3927863538265228
1790333698228988700,8.68898876953125,0.4758640229701996,0.5112941861152649,-0.5839871764183044
1790333698245473300,8.705473388671875,0.8552113175392151,0.8820894360542297,-0.6377432942390442
1790333698261945300,8.7219453125,1.4593570232391357,0.8454375267028809,-0.6420193910598755
1790333698278495700,8.738495849609375,1.8588629961013794,0.34697145223617554,-0.5717698931694031
1790333698294942200,8.754942138671876,2.048841953277588,0.04214970022439957,-0.3793473243713379
1790333698311428600,8.7714287109375,2.161241292953491,0.03237585723400116,-0.1362229436635971
1790333698327911000,8.787910888671876,2.1673498153686523,0.09957103431224823,0.0757472887635231
1790333698344361700,8.80436181640625,2.174069404602051,0.1264491081237793,0.24556782841682434
1790333698360837600,8.820837646484375,2.2681427001953125,-0.039095375686883926,0.31459560990333557
1790333698377290200,8.837290283203124,2.3383922576904297,-0.17592918872833252,0.2834414839744568
1790333698393799400,8.85379931640625,2.2742512226104736,-0.14233160018920898,0.2382374405860901
1790333698410281200,8.87028125,2.101376533508301,-0.1270599663257599,0.17959438264369965
1790333698426742500,8.886742431640625,1.9211711883544922,-0.14844025671482086,0.10934487730264664
1790333698443220500,8.903220458984375,1.833817481994629,-0.16493362188339233,0.05803219974040985
1790333698459691800,8.91969189453125,1.8582520484924316,-0.17837265133857727,-0.00855211354792118
1790333698476168000,8.93616796875,1.9382754564285278,-0.14966198801994324,-0.08429940044879913
1790333698492654300,8.952654296875,1.984701156616211,-0.17898350954055786,-0.14782938361167908
1790333698509102800,8.969102783203125,2.0085248947143555,-0.2370157092809677,-0.16554448008537292
1790333698525637000,8.98563720703125,1.9926424026489258,-0.07941248267889023,-0.08735372871160507
1790333698542086700,9.002086669921875,1.9083430767059326,0.24068090319633484,0.016493361443281174
1790333698558572800,9.01857275390625,1.804495930671692,0.44837507605552673,0.03481931984424591
1790333698575047400,9.03504736328125,1.6945401430130005,0.5155702829360962,-0.03726277872920036
1790333698591491800,9.051491943359375,1.5778648853302002,0.3854559659957886,-0.16798794269561768
1790333698607993600,9.06799365234375,1.4110987186431885,0.19608774781227112,-0.2681698501110077
1790333698624445200,9.084445068359376,1.214400053024292,0.2064724564552307,-0.2675589919090271
1790333698640918000,9.10091796875,1.0085384845733643,0.31093040108680725,-0.22602014243602753
1790333698657390000,9.11739013671875,0.8326093554496765,0.38606682419776917,-0.16737708449363708
1790333698673853000,9.13385302734375,0.6774495840072632,0.4031710624694824,-0.1264491081237793
1790333698690354000,9.15035400390625,0.513126790523529,0.32009339332580566,-0.09896016865968704
1790333698706857500,9.166857421875,0.3439171314239502,0.22663100063800812,-0.05803219974040985
1790333698723298000,9.183298095703124,0.192422553896904,0.1814269721508026,0.03848451003432274
1790333698739823400,9.1998232421875,0.13988813757896423,0.08491026610136032,0.19792033731937408
1790333698756322000,9.216322021484375,0.21807889640331268,0.039095375686883926,0.40072759985923767
1790333698772818000,9.23281787109375,0.2718350291252136,0.0507018156349659,0.6157521605491638
1790333698789258200,9.24925830078125,0.20830504596233368,0.1160643994808197,0.7336491346359253
1790333698805709600,9.26570947265625,0.054367005825042725,0.15577064454555511,0.7348709106445312
1790333698822183700,9.28218359375,-0.05925392732024193,0.2028072625398636,0.6866125464439392
1790333698838627000,9.298626953125,-0.12217304855585098,0.16737708449363708,0.5937610268592834
1790333698855122700,9.315122802734376,-0.16065755486488342,0.11728613078594208,0.49357911944389343
1790333698871570400,9.3315703125,-0.26511552929878235,0.8020660877227783,-0.1618792861700058
1790333698888047600,9.348047607421876,-0.24129177629947662,0.38117989897727966,-0.28099802136421204
1790333698904527600,9.364527587890626,-0.2321287989616394,0.5815436840057373,-0.6090326309204102
1790333698920980700,9.380980712890626,-0.29504790902137756,0.32559117674827576,-0.7800748944282532
1790333698937504300,9.397504150390626,-0.3701843321323395,0.1319468915462494,-0.799011766910553
1790333698953968400,9.413968505859375,-0.47769662737846375,0.24190263450145721,-0.675616979598999
1790333698970432300,9.430432373046875,-0.48197266459465027,0.33536502718925476,-0.38606682419776917
1790333698986915600,9.44691552734375,-0.36529740691185,0.4147774875164032,-0.1722639948129654
1790333699003355400,9.46335546875,-0.11484266817569733,0.3170390725135803,0.03726277872920036
1790333699019877600,9.479877685546874,0.182648703455925,0.2889392673969269,0.15882496535778046
1790333699036317700,9.496317626953125,0.43127086758613586,0.1270599663257599,0.2981022298336029
1790333699052799200,9.51279931640625,0.36590829491615295,0.21624629199504852,0.2871066629886627
1790333699069213200,9.529213134765625,0.10018189996480942,0.42210787534713745,0.12889257073402405
1790333699085656300,9.54565625,0.4691445231437683,0.3988949954509735,0.32681289315223694
1790333699102132200,9.56213232421875,0.4043927788734436,0.3695734739303589,0.21135938167572021
1790333699118575400,9.578575439453125,0.14477506279945374,0.46792277693748474,0.0006108652451075613
1790333699135079000,9.595078857421875,0.12095131725072861,0.5198463201522827,-0.10934487730264664
1790333699151552000,9.611552001953125,0.20830504596233368,0.4098905920982361,-0.1722639948129654
1790333699168004900,9.6280048828125,0.13316862285137177,0.20341812074184418,-0.3549126982688904
1790333699184474000,9.64447412109375,-0.03787364438176155,0.14233160018920898,-0.5943718552589417
1790333699200942000,9.660942138671874,-0.0708603709936142,0.07147123664617538,-0.799011766910553
1790333699217410000,9.67741015625,0.007941247895359993,-0.04459316283464432,-0.978606104850769
1790333699233862400,9.6938623046875,0.03420845419168472,0.05253441259264946,-1.122159481048584
1790333699250301400,9.710301513671874,0.09834930300712585,0.423329621553421,-1.0806206464767456
1790333699266823400,9.726823486328126,0.21441370248794556,0.6493497490882874,-0.8295549750328064
1790333699283259400,9.74325927734375,0.35674530267715454,0.6065891981124878,-0.40622538328170776
1790333699299764000,9.759763916015626,0.4746423065662384,0.5913175344467163,0.05314527451992035
1790333699316264700,9.7762646484375,0.4550946056842804,0.4031710624694824,0.32620203495025635
1790333699332734700,9.792734619140624,0.33719760179519653,0.10018189996480942,0.413555771112442
1790333699349228000,9.80922802734375,0.22968533635139465,-0.15821409225463867,0.3176499307155609
1790333699365674200,9.82567431640625,-0.0403171069920063,-0.5766568183898926,0.11362093687057495
1790333699382165800,9.842165771484375,-0.48258355259895325,-1.045190453529358,-0.22418753802776337
1790333699398633500,9.858633544921876,-0.8387179970741272,-1.102611780166626,-0.41661009192466736
1790333699415073300,9.8750732421875,-1.0677924156188965,-0.7855727076530457,-0.5705481171607971
1790333699431566600,9.891566650390626,-1.0500773191452026,-0.34758231043815613,-0.675616979598999
1790333699448027100,9.908027099609376,-0.8710938692092896,-0.15332718193531036,-0.8802568316459656
1790333699464490800,9.92449072265625,-0.6737843751907349,-0.03481931984424591,-1.0775662660598755
1790333699480994600,9.94099462890625,-0.4660901725292206,-0.01466076634824276,-1.160033106803894
1790333699497462800,9.957462890625,-0.1612684279680252,-0.1765400618314743,-1.2541064023971558
1790333699513980000,9.97397998046875,0.10567969083786011,0.007941247895359993,-1.253495454788208
1790333699530445800,9.99044580078125,0.1966986060142517,0.4746423065662384,-0.911410927772522
1790333699546891800,10.006891845703125,0.2535090744495392,0.21074850857257843,-0.4642575979232788
1790333699563413200,10.023413330078125,0.22540926933288574,-0.49235737323760986,0.2376265823841095
1790333699579884500,10.039884521484375,0.18875735998153687,-0.7067710757255554,1.1533136367797852
1790333699596365600,10.056365478515625,0.09285151958465576,-0.7550294399261475,1.6572774648666382
1790333699612841500,10.072841552734374,0.019547687843441963,-1.1374311447143555,1.8270978927612305
1790333699629335000,10.0893349609375,-0.02015855349600315,-1.395827054977417,1.7427985668182373
1790333699645801500,10.105801513671874,0.0024434609804302454,-1.0671815872192383,1.5430456399917603
1790333699662245000,10.1222451171875,0.1918116807937622,-0.6420193910598755,1.1453723907470703
1790333699678754800,10.1387548828125,0.3903428912162781,-0.6737843751907349,0.6536257863044739
1790333699695248400,10.155248291015624,0.3280346393585205,-1.3487904071807861,0.10384709388017654
1790333699711712300,10.171712158203125,0.39584067463874817,-2.7898216247558594,-0.7660250067710876
1790333699728187000,10.188186767578125,0.48258355259895325,-2.4013113975524902,-1.23394775390625
1790333699744649200,10.204649169921876,0.588263213634491,-1.3701707124710083,-1.2370021343231201
1790333699761198600,10.221198486328126,0.6841690540313721,-0.6609562039375305,-1.043968677520752
1790333699777666300,10.237666259765625,0.5277875661849976,0.028099801391363144,-0.9810495972633362
1790333699794130700,10.254130615234375,0.29077184200286865,0.37690386176109314,-1.151481032371521
1790333699810602200,10.270602294921876,0.2272418737411499,0.41172316670417786,-1.4013248682022095
1790333699827040500,10.28704052734375,0.38240164518356323,0.7037167549133301,-1.3561208248138428
1790333699843562800,10.303562744140624,0.7067710757255554,1.1557570695877075,-1.321912407875061
1790333699860044500,10.32004443359375,0.8613200187683105,1.5864170789718628,-1.3494013547897339
1790333699876379100,10.336379150390625,0.6896668672561646,2.0812180042266846,-1.0891727209091187
1790333699892844300,10.35284423828125,0.24617868661880493,2.4391849040985107,-0.5968153476715088
1790333699909321500,10.369321533203125,-0.15271630883216858,1.9999728202819824,-0.30482175946235657
1790333699925806600,10.385806640625,-0.39156460762023926,1.5906931161880493,0.08674286305904388
1790333699942303200,10.40230322265625,-0.33169981837272644,1.2767083644866943,0.4550946056842804
1790333699958766300,10.418766357421875,-0.07757988572120667,0.9999864101409912,0.7159340381622314
1790333699975238000,10.43523779296875,0.36224308609962463,1.2510520219802856,0.8234463334083557
1790333699991709200,10.451709228515625,0.617584764957428,0.921795666217804,0.48869219422340393
1790333700008195600,10.468195556640625,0.7141014933586121,-0.2767219543457031,-0.3933972120285034
1790333700024636000,10.484635986328126,0.48808133602142334,-0.7861835956573486,-0.8802568316459656
1790333700041110300,10.5011103515625,-0.0806342139840126,0.0659734457731247,-0.7452555894851685
1790333700057545200,10.517545166015625,-0.17776179313659668,0.11545353382825851,-0.5833762884140015
1790333700074015700,10.534015625,-0.413555771112442,0.04153883829712868,-0.5510004758834839
1790333700090508500,10.550508544921875,-0.5461135506629944,0.33597588539123535,-0.2724458873271942
1790333700106957800,10.566957763671875,-0.43676865100860596,0.26939156651496887,-0.04581489413976669
1790333700123492000,10.5834921875,-0.394008070230484,0.242513507604599,0.13377949595451355
1790333700139992800,10.599992919921876,-0.4337143301963806,0.36102136969566345,0.22663100063800812
1790333700156433200,10.61643310546875,-0.45142942667007446,0.5558874011039734,0.26145032048225403
1790333700172930800,10.632930908203125,-0.20830504596233368,0.38728857040405273,0.3628539443016052
1790333700189399000,10.64939892578125,0.24007004499435425,0.7250970602035522,0.6352998614311218
1790333700205868300,10.665868408203124,0.817337691783905,0.5259549617767334,0.6432411074638367
1790333700222373600,10.68237353515625,1.158811330795288,0.4801400899887085,0.44715335965156555
1790333700238814700,10.698814697265625,1.3115277290344238,0.26145032048225403,0.2687807083129883
1790333700255345200,10.71534521484375,1.4110987186431885,0.5290092825889587,0.375071257352829
1790333700271782000,10.731781982421875,1.445918083190918,0.6884451508522034,0.6774495840072632
1790333700288265200,10.74826513671875,1.3451253175735474,0.5155702829360962,0.8521569967269897
1790333700304763100,10.76476318359375,0.7629706859588623,-0.3836233615875244,0.4893030524253845
1790333700321207800,10.781207763671874,0.0403171069920063,-1.0433578491210938,0.01466076634824276
1790333700337697000,10.797697021484375,-0.029932396486401558,-0.5516113042831421,-0.03726277872920036
1790333700354151000,10.81415087890625,0.10262536257505417,-0.14538592100143433,-0.0354301854968071
1790333700370675700,10.83067578125,-0.11545353382825851,0.45326200127601624,-0.03787364438176155
1790333700387180000,10.847179931640625,-0.3488040566444397,1.0073168277740479,-0.1618792861700058
1790333700403634400,10.863634521484375,-0.10323622822761536,0.8845328688621521,-0.3029891550540924
1790333700420128500,10.88012841796875,0.34574973583221436,0.685390830039978,-0.46181413531303406
1790333700436596500,10.896596435546876,0.2889392673969269,0.3781255781650543,-0.3378084897994995
1790333700453062100,10.913062255859375,0.06414084881544113,0.14538592100143433,-0.014049900695681572
1790333700469573400,10.929573486328126,-0.08918632566928864,-0.07147123664617538,0.18814650177955627
1790333700486042400,10.94604248046875,-0.31520646810531616,-0.014049900695681572,0.1368338167667389
1790333700502585000,10.962585205078126,-0.2871066629886627,0.24068090319633484,-0.21319197118282318
1790333700519024400,10.9790244140625,-0.17470745742321014,0.5729916095733643,-0.6426302194595337
1790333700535520500,10.9955205078125,-0.10506882518529892,0.7061602473258972,-1.072068452835083
1790333700551991000,11.011990966796875,-0.13377949595451355,0.8350527882575989,-1.1832460165023804
1790333700568426000,11.028426025390624,-0.015882495790719986,0.9040805697441101,-1.0201449394226074
1790333700584946000,11.04494580078125,0.09162978827953339,0.8454375267028809,-0.8246681094169617
1790333700601423400,11.06142333984375,0.15882496535778046,0.5119050741195679,-0.5540547966957092
1790333700617913000,11.0779130859375,0.37690386176109314,-0.1514945775270462,-0.28588494658470154
1790333700634397700,11.094397705078125,0.5510004758834839,-0.8289441466331482,-0.16920967400074005
1790333700650872800,11.110872802734375,0.6304129362106323,-1.3066407442092896,-0.34636059403419495
1790333700667388400,11.127388427734376,0.8216137290000916,-1.3396275043487549,-0.7531968355178833
1790333700683851800,11.143851806640624,0.921184778213501,-1.1997393369674683,-1.1954632997512817
1790333700700315100,11.160315185546875,0.9266825914382935,-0.9944885969161987,-1.508837103843689
1790333700716782000,11.176781982421875,0.8148942589759827,-0.9993755221366882,-1.8539760112762451
1790333700733281300,11.19328125,0.8313875794410706,-0.8503243923187256,-2.2003366947174072
1790333700749798000,11.2097978515625,1.3243558406829834,-0.788016140460968,-2.325563907623291
1790333700766295800,11.2262958984375,1.8753563165664673,-1.0293079614639282,-2.3316726684570312
1790333700782764300,11.242764404296874,1.842369556427002,-1.0757336616516113,-2.060448408126831
1790333700799218400,11.259218505859375,1.7721201181411743,-1.0311405658721924,-1.8643606901168823
1790333700815688400,11.2756884765625,1.8484781980514526,-1.4398094415664673,-1.843591332435608
1790333700832157000,11.292156982421876,1.6957619190216064,-1.8350391387939453,-1.5864170789718628
1790333700848603000,11.308602783203124,1.5161675214767456,-1.4013248682022095,-1.243721604347229
1790333700865127000,11.325126953125,1.4282029867172241,-0.3378084897994995,-1.357953429222107
1790333700881630000,11.3416298828125,1.4618005752563477,-0.33292156457901,-2.1447479724884033
1790333700898071300,11.3580712890625,1.7440202236175537,-0.1875356286764145,-2.348165988922119
1790333700914569700,11.37456982421875,1.6047430038452148,0.23396138846874237,-2.2650883197784424
1790333700931019500,11.39101953125,0.99876469373703,0,-2.29440975189209
1790333700947522600,11.4075224609375,0.2626720666885376,-0.5503895878791809,-2.1484131813049316
1790333700964036600,11.42403662109375,-0.1563815027475357,-0.8417723178863525,-1.6377297639846802
1790333700980513000,11.440512939453125,-0.5155702829360962,-0.3878994286060333,-1.084285855293274
1790333700997046500,11.457046630859375,-0.7739662528038025,0.5351179838180542,-0.6389650702476501
1790333701013491200,11.4734912109375,-1.092837929725647,1.4844025373458862,-0.3988949954509735
1790333701029974500,11.489974609375,-1.2760975360870361,1.7757853269577026,-0.4453207552433014
1790333701046483500,11.5064833984375,-1.244943380355835,1.758681058883667,-0.6420193910598755
1790333701062867000,11.522866943359375,-1.2809844017028809,1.7256942987442017,-1.0971139669418335
1790333701079278600,11.539278564453125,-1.513113260269165,1.6701055765151978,-1.7550158500671387
1790333701095767000,11.55576708984375,-1.7067575454711914,2.040289878845215,-2.1991147994995117
1790333701112237800,11.57223779296875,-1.9199494123458862,2.484999895095825,-2.56868839263916
1790333701128690700,11.588690673828125,-2.040289878845215,2.780658483505249,-2.6871962547302246
1790333701145127400,11.60512744140625,-0.779464066028595,2.9944615364074707,-2.020742177963257
1790333701161517800,11.621517822265625,-0.5674937963485718,2.3041837215423584,-1.817324161529541
1790333701177955300,11.637955322265626,-0.8827002644538879,1.5015068054199219,-0.6542366743087769
1790333701194418200,11.654418212890626,-1.46424400806427,1.2119566202163696,0.3933972120285034
1790333701210866400,11.670866455078125,-1.302364706993103,0.9657779335975647,1.3921618461608887
1790333701227310000,11.68731005859375,-1.4526375532150269,0.28466320037841797,2.4110851287841797
1790333701243782000,11.703781982421875,-1.6169602870941162,-0.7819074988365173,2.899777412414551
1790333701260224500,11.720224609375,-1.7079792022705078,-1.4660766124725342,2.883283853530884
1790333701276681700,11.736681640625,-1.539380431175232,-1.1178834438323975,1.5827518701553345
1790333701293122600,11.75312255859375,-1.2260065078735352,-0.7244861721992493,-0.40622538328170776
1790333701309595600,11.769595703125,-1.1447614431381226,0.005497787147760391,-1.7018705606460571
1790333701326054100,11.78605419921875,-0.9621127843856812,0.4196644127368927,-2.4251351356506348
1790333701342496000,11.80249609375,-0.9657779335975647,0.6139195561408997,-2.442239284515381
1790333701358958800,11.818958740234375,-0.9999864101409912,0.44287729263305664,-1.7446311712265015
1790333701375397600,11.835397705078124,-1.1068878173828125,0.21319197118282318,-0.6969972252845764
1790333701391835100,11.851835205078125,-1.1844676733016968,-0.10323622822761536,0.2064724564552307
1790333701408289800,11.868289794921875,-0.11301007121801376,-0.25595253705978394,-0.6774495840072632
1790333701424763100,11.88476318359375,0.04948008432984352,0.10812314599752426,-0.7617489695549011
1790333701441205800,11.901205810546875,-0.05497787147760391,-0.05192354694008827,-0.8680394887924194
1790333701457645300,11.917645263671876,-0.09957103431224823,-0.15760323405265808,-1.207680583000183
1790333701474081800,11.934081787109376,0.02626720629632473,-0.28038713335990906,-1.4960089921951294
1790333701490547000,11.950546875,0.17837265133857727,-0.05009094998240471,-2.1282544136047363
1790333701506987300,11.9669873046875,0.03787364438176155,0.21991148591041565,-1.9523253440856934
1790333701523446300,11.9834462890625,0.10201449692249298,1.3933836221694946,-1.7983872890472412
1790333701539885800,11.9998857421875,0.17531833052635193,0.5913175344467163,-1.2779301404953003
1790333701556283000,12.016282958984375,0.19058994948863983,0.1869247704744339,-1.149037480354309
1790333701572725200,12.032725341796874,0.03420845419168472,-0.11423180252313614,-1.1197160482406616
1790333701589170200,12.049170166015625,-0.09896016865968704,-0.11728613078594208,-0.8723155856132507
1790333701605629700,12.065629638671876,-0.4239404797554016,0.21013765037059784,-0.45204028487205505
1790333701622076400,12.082076416015624,-0.6768386960029602,1.5265522003173828,0.25106561183929443
1790333701638521300,12.098521240234374,-0.5247332453727722,1.9230037927627563,0.7415903806686401
1790333701654966300,12.11496630859375,-0.3628539443016052,2.4856107234954834,1.3158037662506104
1790333701671414800,12.131414794921875,-0.8527678847312927,-0.25534167885780334,-3.224757671356201
1790333701687864300,12.1478642578125,1.2901474237442017,2.0060815811157227,-3.7372734546661377
1790333701704317200,12.164317138671874,0.8417723178863525,-1.9339994192123413,-3.36708927154541
1790333701720766500,12.180766357421875,1.7427985668182373,-1.0812314748764038,-2.521040916442871
1790333701737244400,12.197244384765625,1.9236146211624146,0.8429940342903137,-0.8594874143600464
1790333701753692400,12.2136923828125,0.9334021210670471,-0.5241223573684692,-1.1820242404937744
1790333701770140000,12.230139892578125,0.6536257863044739,0.48380526900291443,0.3292563557624817
1790333701786583000,12.2465830078125,0.6414085030555725,0.3701843321323395,0.5516113042831421
1790333701803029200,12.263029296875,1.1313223838806152,1.4691308736801147,0.18387043476104736
1790333701819357200,12.279357177734376,1.2999212741851807,2.7324001789093018,1.178359031677246
1790333701835802600,12.295802734375,1.7666223049163818,0.7709119319915771,0.39156460762023926
1790333701852248800,12.312248779296874,2.007303237915039,1.130711555480957,0.19608774781227112
1790333701868695000,12.328695068359375,0.4508185386657715,2.448347806930542,-1.2473868131637573
1790333701884150000,12.34414990234375,0.5455026626586914,2.3689353466033936,-0.6157521605491638
1790333701900452000,12.3604521484375,0.4184426963329315,1.2406673431396484,-0.9340129494667053
1790333701915777800,12.37577783203125,-0.5057964324951172,0.35735616087913513,-0.31459560990333557
1790333701932228600,12.392228515625,-0.4184426963329315,-0.34697145223617554,-0.38117989897727966
1790333701948677600,12.408677734375,-0.5815436840057373,-1.0958921909332275,-0.2834414839744568
1790333701965130500,12.425130615234375,-0.5772676467895508,-1.4624114036560059,-0.16982053220272064
1790333701981615000,12.441614990234376,-0.8228355050086975,-1.4410310983657837,-0.3781255781650543
1790333701998068000,12.45806787109375,-0.6701191663742065,-0.6438519954681396,-0.42210787534713745
1790333702014521600,12.474521484375,-0.7580837607383728,-0.42088615894317627,-0.4746423065662384
1790333702030972000,12.490971923828125,-0.7825183868408203,-0.15332718193531036,-0.42271876335144043
1790333702047427600,12.507427490234376,-0.8900306820869446,-0.413555771112442,-0.32009339332580566
1790333702063912400,12.523912353515625,-1.178359031677246,-0.5729916095733643,-0.3433062732219696
1790333702080363300,12.54036328125,-1.176526427268982,-0.7409795522689819,-0.3585779070854187
1790333702096886000,12.556885986328124,-1.1203268766403198,-0.6951646208763123,-0.5540547966957092
1790333702113334300,12.573334228515625,-1.0995573997497559,-0.6218608021736145,-0.7226535677909851
1790333702129780200,12.5897802734375,-1.0885618925094604,-0.6841690540313721,-1.0335839986801147
1790333702146226700,12.606226806640626,-1.0879509449005127,-0.5412266254425049,-1.350012183189392
1790333702162701300,12.622701416015625,-0.9108000993728638,-0.394618958234787,-1.4135421514511108
1790333702179146800,12.639146728515625,-0.9615018963813782,-0.34513887763023376,-1.5094480514526367
1790333702195593000,12.655593017578125,-0.005497787147760391,-0.29565876722335815,-0.2883284091949463
1790333702212038700,12.67203857421875,-0.018936822190880775,-0.036041051149368286,-0.045204028487205505
1790333702228537300,12.688537353515626,0.010995574295520782,-0.024434609338641167,0.06841690838336945
1790333702244989200,12.7049892578125,0.001832595793530345,-0.036651913076639175,0.04214970022439957
1790333702261483000,12.72148291015625,-0.039095375686883926,-0.015882495790719986,0.01771509274840355
1790333702277954300,12.737954345703125,-0.02076941914856434,0.0354301854968071,-0.006108652334660292
1790333702294436000,12.75443603515625,-0.02015855349600315,-0.022602014243602753,-0.021380282938480377
1790333702310930700,12.7709306640625,-0.0354301854968071,0.03726277872920036,-0.02015855349600315
1790333702327416800,12.787416748046875,-0.00366519158706069,-0.024434609338641167,0.012217304669320583
1790333702343911200,12.8039111328125,0.007941247895359993,-0.056810468435287476,0.018325956538319588
1790333702360380000,12.8203798828125,-0.01710422709584236,0.03298672288656235,0.018325956538319588
1790333702376831200,12.836831298828125,-0.014049900695681572,0.019547687843441963,0.29626965522766113
1790333702393273000,12.853273193359374,-0.3579670190811157,-0.3488040566444397,0.5497786998748779
1790333702409744000,12.869743896484374,0.40744712948799133,-0.3628539443016052,1.1655309200286865
1790333702426187300,12.886187255859374,0.749531626701355,0.4202753007411957,1.7623462677001953
1790333702442628600,12.902628662109375,1.274264931678772,0.4447098970413208,2.059837579727173
1790333702459074300,12.91907421875,1.5583171844482422,1.1172724962234497,2.3072381019592285
1790333702475553800,12.9355537109375,1.6291775703430176,-0.4306600093841553,2.2986860275268555
1790333702492001300,12.952001220703124,1.9828685522079468,-0.8582656979560852,1.3213015794754028
1790333702508450800,12.968450927734375,1.8582520484924316,0.8741481900215149,1.7342463731765747
1790333702524898800,12.98489892578125,1.8136589527130127,2.2064452171325684,2.4721715450286865
1790333702541354800,13.001354736328125,1.674992561340332,0.32986724376678467,2.3273966312408447
1790333702557804500,13.017804443359376,0.8588765263557434,-3.411071538925171,0.3640756905078888
1790333702574254600,13.034254638671875,0.07452555745840073,-0.931569516658783,0.14905111491680145
1790333702590734800,13.05073486328125,-0.12889257073402405,0.37751471996307373,-0.20097467303276062
1790333702607181800,13.067181884765626,-0.11667526513338089,0.1722639948129654,0.07880161702632904
1790333702623628800,13.08362890625,0.027488935738801956,-0.24862214922904968,0.04459316283464432
1790333702640074500,13.100074462890625,-0.03298672288656235,0.01160643994808197,0.009773843921720982
1790333702656572000,13.116572021484375,-0.013439035043120384,0.11423180252313614,-0.04581489413976669
1790333702673019100,13.13301904296875,0.006719517521560192,-0.21441370248794556,0.009162978269159794
1790333702689464800,13.14946484375,-0.015882495790719986,-0.04948008432984352,0.04153883829712868
1790333702705919700,13.165919677734376,-0.06719517707824707,0.06719517707824707,-0.039095375686883926
1790333702722420200,13.182420166015625,-0.00366519158706069,-0.031154127791523933,-0.00855211354792118
1790333702738887200,13.19888720703125,0.04703662544488907,0.3237585723400116,0.02871066704392433
1790333702755331800,13.215331787109376,-0.06963863968849182,-0.05375614017248154,0.006108652334660292
1790333702771814000,13.23181396484375,0.006719517521560192,0.1508837193250656,-0.009162978269159794
1790333702788288000,13.2482880859375,0.007941247895359993,-0.06169738993048668,-0.012828170321881771
1790333702804783600,13.26478369140625,0.051312681287527084,0.3732386529445648,-0.0507018156349659
1790333702821233000,13.28123291015625,-0.033597588539123535,-0.26145032048225403,0.004886921960860491
1790333702837708000,13.2977080078125,0.05619960278272629,-0.10995574295520782,0.01710422709584236
1790333702854157600,13.314157470703124,0.013439035043120384,-0.03420845419168472,0.0012217304902151227
1790333702870640600,13.330640625,0.01710422709584236,-0.006719517521560192,-0.02321287989616394
1790333702887113500,13.347113525390625,0.03298672288656235,-0.15943582355976105,0.009162978269159794
1790333702902542600,13.36254248046875,-0.016493361443281174,-0.07269296050071716,-0.0012217304902151227
1790333702919043000,13.37904296875,-0.05742133408784866,0.17470745742321014,-0.04642575979232788
1790333702935500500,13.39550048828125,0.00733038317412138,-0.1368338167667389,0.00366519158706069
1790333702951971000,13.41197119140625,0.07269296050071716,0.41233405470848083,-0.00366519158706069
1790333702968442600,13.428442626953125,-0.07941248267889023,-0.15393804013729095,0.02321287989616394
1790333702984894000,13.44489404296875,0.06475171446800232,-0.07941248267889023,-0.006719517521560192
1790333703001337300,13.46133740234375,-0.01038470957428217,0.010995574295520782,0.0006108652451075613
1790333703017819000,13.47781884765625,-0.018936822190880775,0.11972958594560623,-0.04764748737215996
1790333703034267000,13.494266845703125,0.007941247895359993,-0.29993483424186707,0.01160643994808197
1790333703050721000,13.510720947265625,0.042760565876960754,-0.09162978827953339,0.01771509274840355
1790333703067132000,13.5271318359375,-0.001832595793530345,0.024434609338641167,-0.0024434609804302454
1790333703083625700,13.543625732421875,-0.015271631069481373,-0.09040805697441101,0.01710422709584236
1790333703100094500,13.560094482421874,0.056810468435287476,0.18631389737129211,0.05925392732024193
1790333703116534800,13.57653466796875,-0.06230825558304787,-0.12034045159816742,0.012217304669320583
1790333703133002500,13.59300244140625,-0.05497787147760391,0.242513507604599,-0.01710422709584236
1790333703149482800,13.609482666015625,-0.02015855349600315,-0.11362093687057495,0.012828170321881771
1790333703165950700,13.62595068359375,0.04092797264456749,0.3494149148464203,0.009162978269159794
1790333703182262000,13.642261962890625,-0.10690141469240189,-0.21624629199504852,0.05253441259264946
1790333703198703600,13.65870361328125,0.04459316283464432,-0.02626720629632473,-0.006108652334660292
1790333703215168500,13.67516845703125,-0.021380282938480377,-0.05253441259264946,-0.018325956538319588
1790333703231622100,13.6916220703125,-0.007941247895359993,0.20341812074184418,-0.03298672288656235
1790333703248062700,13.708062744140625,-0.05803219974040985,-0.29504790902137756,0.030543262138962746
1790333703264503800,13.72450390625,0.01466076634824276,-0.15882496535778046,0.018325956538319588
1790333703280951300,13.740951416015625,-0.01038470957428217,-0.0910189226269722,-0.02382374368607998
1790333703297421300,13.75742138671875,-0.04886921867728233,0.04642575979232788,-0.01466076634824276
1790333703313874700,13.773874755859374,-0.00855211354792118,-0.27061331272125244,0.012828170321881771
1790333703330317300,13.7903173828125,0.0024434609804302454,-0.20463985204696655,0.009773843921720982
1790333703346758400,13.80675830078125,-0.021991148591041565,0.04459316283464432,-0.0024434609804302454
1790333703363240200,13.823240234375,-0.0507018156349659,-0.2125810980796814,0.021380282938480377
1790333703379679700,13.8396796875,0.021380282938480377,0.04948008432984352,0.048258353024721146
1790333703396164600,13.85616455078125,-0.060475658625364304,-0.29138273000717163,0.031154127791523933
1790333703412604700,13.872604736328125,-0.04886921867728233,0.2571742534637451,-0.031154127791523933
1790333703429058000,13.88905810546875,-0.05864306539297104,-0.07757988572120667,0.014049900695681572
1790333703445510700,13.9055107421875,0.03848451003432274,0.22602014243602753,-0.016493361443281174
1790333703461979100,13.921979248046876,-0.09224065393209457,-0.15760323405265808,0.0354301854968071
1790333703478428200,13.93842822265625,0.016493361443281174,0.08735372871160507,-0.022602014243602753
1790333703494894800,13.954894775390626,-0.04092797264456749,-0.1319468915462494,-0.010995574295520782
1790333703511339000,13.971339111328126,0.009162978269159794,0.1264491081237793,-0.05742133408784866
1790333703527786200,13.9877861328125,0.025656340643763542,-0.1667662113904953,-0.024434609338641167
1790333703544227800,14.004227783203126,0.02871066704392433,-0.028099801391363144,0.0006108652451075613
1790333703560682200,14.02068212890625,-0.01771509274840355,0.04214970022439957,-0.03176499158143997
1790333703577179600,14.0371796875,-0.02321287989616394,-0.01038470957428217,0.006719517521560192
1790333703593647400,14.0536474609375,0.036651913076639175,0.17409659922122955,0.012217304669320583
1790333703610090200,14.07009033203125,-0.08491026610136032,-0.07269296050071716,-0.012217304669320583
1790333703626558200,14.08655810546875,0.01160643994808197,0.009773843921720982,0.015271631069481373
1790333703643047400,14.10304736328125,-0.02015855349600315,-0.10690141469240189,-0.025045474991202354
1790333703659517400,14.119517333984374,-0.009773843921720982,0.23457226157188416,-0.05314527451992035
1790333703675961300,14.13596142578125,-0.039095375686883926,-0.30115658044815063,0.021380282938480377
1790333703692427800,14.152427734375,0.051312681287527084,-0.05864306539297104,0.003054326167330146
1790333703708895500,14.1688955078125,-0.02871066704392433,-0.051312681287527084,0.01466076634824276
1790333703725358600,14.185358642578125,-0.04459316283464432,-0.03176499158143997,0.006719517521560192
1790333703741828600,14.20182861328125,0.02871066704392433,0.036651913076639175,0.045204028487205505
1790333703758297300,14.21829736328125,-0.10934487730264664,-0.05864306539297104,0.00427605677396059
1790333703774771700,14.234771728515625,-0.06230825558304787,0.192422553896904,-0.0006108652451075613
1790333703791241700,14.25124169921875,0.018936822190880775,-0.031154127791523933,-0.005497787147760391
1790333703807695400,14.2676953125,0.01466076634824276,0.21074850857257843,-0.012217304669320583
1790333703824135400,14.284135498046876,-0.08429940044879913,-0.16493362188339233,0.051312681287527084
1790333703840588000,14.300588134765626,0.027488935738801956,-0.11056660860776901,0.01771509274840355
1790333703857053400,14.317053466796875,-0.02687807008624077,-0.07635815441608429,0.03787364438176155
1790333703873546500,14.33354638671875,-0.025656340643763542,-0.006719517521560192,-0.016493361443281174
1790333703890029000,14.350029052734374,0.027488935738801956,-0.11850785464048386,0.03420845419168472
1790333703906472400,14.366472412109376,-0.01771509274840355,-0.022602014243602753,0.01710422709584236
1790333703922953200,14.382953125,-0.08857546001672745,0.1313360333442688,-0.03298672288656235
1790333703939420700,14.399420654296875,-0.001832595793530345,-0.09957103431224823,-0.015271631069481373
1790333703955859200,14.415859130859374,0.031154127791523933,0.23273965716362,-0.01771509274840355
1790333703972309800,14.432309814453125,-0.05742133408784866,-0.26022860407829285,0.02015855349600315
1790333703988778000,14.448778076171875,0.06169738993048668,0.015271631069481373,-0.02382374368607998
1790333704005247500,14.46524755859375,0.02871066704392433,0.056810468435287476,0.01710422709584236
1790333704021703700,14.48170361328125,-0.007941247895359993,-0.01160643994808197,0.00366519158706069
1790333704038172000,14.498171875,0.04214970022439957,-0.007941247895359993,0.02687807008624077
1790333704054488300,14.51448828125,-0.02687807008624077,0.04153883829712868,0.014049900695681572
1790333704070963500,14.53096337890625,-0.03787364438176155,0.07880161702632904,0.0024434609804302454
1790333704087450000,14.5474501953125,-0.001832595793530345,-0.10018189996480942,-0.03848451003432274
1790333704103924000,14.563924072265625,0.01038470957428217,0.21502456068992615,-0.04703662544488907
1790333704120371700,14.580371826171875,-0.04214970022439957,-0.2883284091949463,0.015271631069481373
1790333704136851500,14.5968515625,0.060475658625364304,0.03420845419168472,-0.025656340643763542
1790333704153318400,14.613318359375,0.03237585723400116,0.04337143152952194,0.0006108652451075613
1790333704169800400,14.629800537109375,0.0024434609804302454,0.00427605677396059,-0.0024434609804302454
1790333704186250200,14.646250244140624,0.06169738993048668,0.2278527319431305,0.010995574295520782
1790333704202718700,14.66271875,-0.05375614017248154,-0.05864306539297104,-0.0012217304902151227
1790333704219172400,14.67917236328125,0.021380282938480377,0.08674286305904388,-0.006108652334660292
1790333704235666400,14.69566650390625,0.051312681287527084,-0.0403171069920063,-0.04153883829712868
1790333704252148500,14.7121484375,0.03787364438176155,0.12889257073402405,-0.031154127791523933
1790333704268598800,14.728598876953125,0.003054326167330146,-0.251676470041275,-0.003054326167330146
1790333704285041000,14.745041015625,0.09834930300712585,0.06414084881544113,-0.021991148591041565
1790333704301493000,14.761492919921874,-0.05497787147760391,0.07941248267889023,-0.04153883829712868
1790333704317962800,14.777962646484376,-0.003054326167330146,-0.08979719132184982,-0.01038470957428217
1790333704334461700,14.794461669921875,0.04459316283464432,0.23884831368923187,-0.036651913076639175
1790333704350931700,14.810931640625,-0.06475171446800232,-0.2638937830924988,0.02015855349600315
1790333704367402200,14.82740234375,0.05314527451992035,0.11239920556545258,-0.012217304669320583
1790333704383881700,14.8438818359375,0.04886921867728233,0.07208210229873657,0.02076941914856434
1790333704400373500,14.86037353515625,-0.12217304855585098,0.8497135639190674,-0.39706242084503174
1790333704416813300,14.876813232421876,-0.21013765037059784,3.8344011306762695,-1.1020009517669678
1790333704433250000,14.89325,-0.30054569244384766,1.1239920854568481,-3.155118942260742
1790333704449686300,14.909686279296874,0.4184426963329315,0.25473082065582275,-1.8490891456604004
1790333704466120700,14.92612060546875,0.5082398653030396,0.27550023794174194,-1.8753563165664673
1790333704482557200,14.94255712890625,0.21930062770843506,3.353039264678955,-1.6713273525238037
1790333704498991400,14.958991455078126,0.21563543379306793,-0.27977627515792847,0.685390830039978
1790333704515431400,14.975431396484375,0.588263213634491,-0.5626068711280823,1.1453723907470703
1790333704531865000,14.991864990234374,0.8350527882575989,0.3182607889175415,1.7794504165649414
1790333704548301300,15.00830126953125,0.817948579788208,0.22052235901355743,2.448347806930542
1790333704564738800,15.02473876953125,0.03237585723400116,-3.0641000270843506,1.225395679473877
1790333704581175300,15.04117529296875,0.5998696684837341,-0.7226535677909851,-0.47280970215797424
1790333704597612500,15.057612548828125,1.5809192657470703,-0.1313360333442688,-1.7629570960998535
1790333704614052600,15.074052490234376,-0.4440990388393402,3.838066339492798,-0.7244861721992493
1790333704630522400,15.0905224609375,-1.178359031677246,2.5418102741241455,-2.105041742324829
1790333704646962400,15.10696240234375,-0.1264491081237793,2.006692409515381,-1.5253305435180664
1790333704663400200,15.123400146484375,-0.12828169763088226,0.4196644127368927,-0.3170390725135803
1790333704679839500,15.139839599609376,0.09346238523721695,-0.8350527882575989,0.6603453159332275
1790333704696278300,15.1562783203125,-0.05375614017248154,-0.40072759985923767,0.31154128909111023
1790333704712716800,15.172716796875,-0.0024434609804302454,-0.11362093687057495,0.07757988572120667
1790333704729185500,15.189185546875,0.0403171069920063,-0.5222898125648499,0.4092797040939331
1790333704745627400,15.20562744140625,0.3536909818649292,-0.28955012559890747,0.5198463201522827
1790333704762074600,15.22207470703125,0.8191702961921692,-0.2828305959701538,2.0512855052948
1790333704778509000,15.238509033203124,0.41599923372268677,-3.791029691696167,1.0690141916275024
1790333704794941400,15.25494140625,0.3127630054950714,-2.420858860015869,1.1239920854568481
1790333704811373000,15.271373046875,-0.06963863968849182,-2.813645362854004,1.1966849565505981
1790333704827803000,15.287802978515625,0.32131510972976685,-6.219219207763672,1.8203784227371216
1790333704844237000,15.304237060546875,0.3286454975605011,-1.4343116283416748,1.7037031650543213
1790333704860670700,15.320670654296874,0.2583959996700287,-0.37568211555480957,-0.12034045159816742
1790333704877130000,15.3371298828125,0.2889392673969269,0.6261368989944458,-0.2626720666885376
1790333704893563000,15.35356298828125,0.22663100063800812,0.7031059265136719,-0.2620611786842346
1790333704909973000,15.369972900390625,0.00366519158706069,0.08796459436416626,-0.10567969083786011
1790333704926406700,15.38640673828125,-0.17104226350784302,-0.3885102868080139,0.2590068578720093
1790333704942839000,15.402839111328126,-0.46242499351501465,0.029932396486401558,0.36713001132011414
1790333704959275500,15.419275634765626,-0.24923302233219147,-0.09957103431224823,0.15882496535778046
1790333704975705300,15.435705322265624,0.045204028487205505,0.28038713335990906,-0.018325956538319588
1790333704992134000,15.4521337890625,-0.004886921960860491,0.1411098688840866,0.019547687843441963
1790333705008599000,15.46859912109375,-0.036041051149368286,-0.05864306539297104,0.01771509274840355
1790333705025054000,15.485053955078126,-0.01038470957428217,0.20830504596233368,0.03420845419168472
1790333705041484800,15.50148486328125,-0.0757472887635231,-0.25961771607398987,0.042760565876960754
1790333705057914000,15.5179140625,0.08979719132184982,-0.1319468915462494,-0.00366519158706069
1790333705074346800,15.5343466796875,0.2535090744495392,-0.7586946487426758,-0.16920967400074005
1790333705090962700,15.550962646484376,1.006095051765442,-1.3261884450912476,-1.017701506614685
1790333705107034000,15.5670341796875,0.44165557622909546,-0.01160643994808197,-0.9364564418792725
1790333705123534300,15.583534423828125,0.045204028487205505,0.3121521472930908,-0.31520646810531616
1790333705139965200,15.599965087890626,0.0403171069920063,-0.5803219676017761,0.012217304669320583
1790333705156396300,15.616396240234375,-0.0354301854968071,-0.8240572214126587,0.09285151958465576
1790333705172800000,15.632800048828125,0.07391469180583954,0.04214970022439957,0.04459316283464432
1790333705189203000,15.649202880859375,-0.015271631069481373,0.025045474991202354,-0.01771509274840355
1790333705205673000,15.6656728515625,0.007941247895359993,-0.08246681094169617,-0.02076941914856434
1790333705222155800,15.68215576171875,-0.0012217304902151227,-0.07024950534105301,-0.00733038317412138
1790333705238614500,15.698614501953125,-0.018936822190880775,-0.025656340643763542,-0.010995574295520782
1790333705255085300,15.715085205078125,0.001832595793530345,-0.14966198801994324,0.009162978269159794
1790333705271545600,15.731545654296875,-0.03176499158143997,-0.08979719132184982,0.00366519158706069
1790333705287988200,15.74798828125,-0.0507018156349659,0.003054326167330146,-0.018325956538319588
1790333705304476200,15.76447607421875,0.018936822190880775,0.07819075137376785,0.012217304669320583
1790333705320939000,15.78093896484375,0.07819075137376785,0.028099801391363144,0.051312681287527084
1790333705337384200,15.79738427734375,0.033597588539123535,0.04886921867728233,-0.0012217304902151227
1790333705353874200,15.813874267578125,0.10384709388017654,-0.02932153269648552,-0.027488935738801956
1790333705370338600,15.830338623046876,0.22052235901355743,0.009773843921720982,-0.004886921960860491
1790333705386774300,15.846774169921876,0.33658674359321594,0.02076941914856434,-0.01710422709584236
1790333705403208400,15.86320849609375,0.37140607833862305,0.051312681287527084,-0.12950342893600464
1790333705419643000,15.879642822265625,0.15943582355976105,0.4086688458919525,-0.1814269721508026
1790333705436105200,15.896105224609375,0.030543262138962746,-0.03420845419168472,-0.09773843735456467
1790333705452540400,15.91254052734375,0.0861319974064827,0.24434609711170197,-0.09773843735456467
1790333705468975900,15.928975830078125,0.010995574295520782,0.1508837193250656,-0.1215621829032898
1790333705485409500,15.945409423828124,0.06475171446800232,0.11362093687057495,-0.27122417092323303
1790333705501849000,15.96184912109375,0.059864792972803116,0.17592918872833252,-0.4691445231437683
1790333705518281700,15.97828173828125,-0.4453207552433014,1.350012183189392,-0.5571091175079346
1790333705534715000,15.99471484375,-0.749531626701355,1.6945401430130005,-0.6444628238677979
1790333705551180800,16.011180908203126,-0.8558222055435181,1.642616629600525,-0.6487388610839844
1790333705567614200,16.0276142578125,-1.0885618925094604,1.549154281616211,-0.9419541954994202
1790333705584041200,16.044041259765624,-1.3866641521453857,1.2137892246246338,-0.8881980776786804
1790333705600470300,16.06047021484375,-0.826500654220581,0.12278391420841217,-0.4440990388393402
1790333705616929300,16.07692919921875,-1.1270463466644287,0.19547687470912933,-0.6163630485534668
1790333705633358300,16.0933583984375,-1.3145819902420044,0.2626720666885376,-0.5864306092262268
1790333705649784800,16.109784912109376,-1.4734070301055908,0.49357911944389343,-0.769079327583313
1790333705666212600,16.126212646484376,-1.1997393369674683,0.16859880089759827,-0.5626068711280823
1790333705682643000,16.142642822265625,-0.5833762884140015,0.015882495790719986,-0.3597996234893799
1790333705699074600,16.159074462890626,0.0555887371301651,0.1569923609495163,-0.12461651116609573
1790333705715511000,16.175510986328124,0.11178833991289139,-0.07147123664617538,-0.01710422709584236
1790333705731945700,16.19194580078125,0.17287486791610718,-0.00855211354792118,-0.06414084881544113
1790333705748384000,16.208384033203124,0.1514945775270462,0.022602014243602753,0.01771509274840355
1790333705764816600,16.224816650390625,0.37140607833862305,0.003054326167330146,0.15882496535778046
1790333705781251000,16.2412509765625,0.3640756905078888,-0.024434609338641167,0.34513887763023376
1790333705797717500,16.257717529296876,0.6914994716644287,-0.152105450630188,0.5723807215690613
1790333705814150700,16.274150634765626,0.6585127115249634,0.03848451003432274,0.6163630485534668
1790333705830587000,16.2905869140625,0.8881980776786804,-0.9816604256629944,0.8093964457511902
1790333705847023000,16.307023193359374,1.0213667154312134,-1.4440854787826538,1.1368201971054077
1790333705863486000,16.32348583984375,0.750142514705658,-0.7965682744979858,1.0983357429504395
1790333705879919000,16.339919189453123,0.4404338300228119,1.46424400806427,0.1875356286764145
1790333705896351500,16.3563515625,0.2730567753314972,0.4239404797554016,0.3903428912162781
1790333705912785200,16.37278515625,0.33719760179519653,-0.5681046843528748,0.3274237811565399
1790333705929101300,16.389101318359376,0.34513887763023376,0.15515977144241333,0.35246923565864563
1790333705945541000,16.405541015625,0.3701843321323395,-1.0280861854553223,0.7104362845420837
1790333705961975600,16.4219755859375,0.14966198801994324,-3.2449162006378174,1.1142182350158691
1790333705978406100,16.43840625,0.32559117674827576,0.3029891550540924,-0.16310101747512817
1790333705994844000,16.454843994140624,0.24434609711170197,0,-0.16982053220272064
1790333706011274200,16.471274169921877,0.06963863968849182,-0.07941248267889023,-0.001832595793530345
1790333706027707100,16.48770703125,-0.07147123664617538,0.02382374368607998,-0.04153883829712868
1790333706044195000,16.504195068359376,-0.07024950534105301,0.1319468915462494,0.010995574295520782
1790333706060627000,16.520626953125,-0.15027284622192383,0.32009339332580566,-0.02932153269648552
1790333706077019400,16.537019287109374,-0.08307767659425735,0.05742133408784866,-0.04214970022439957
1790333706093456100,16.5534560546875,-0.15760323405265808,-0.08002334833145142,-0.2223549485206604
1790333706109922800,16.5699228515625,-0.24129177629947662,-0.8423831462860107,-0.578489363193512
1790333706126359600,16.586359619140627,-0.24678955972194672,-0.1820378452539444,-0.23029619455337524
1790333706142794800,16.602794677734376,0.18631389737129211,0.12522737681865692,0.11423180252313614
1790333706159231000,16.61923095703125,0.16432274878025055,-0.021380282938480377,0.05375614017248154
1790333706175667000,16.6356669921875,0.12889257073402405,0.11850785464048386,0.06719517707824707
1790333706192103000,16.65210302734375,0.11484266817569733,0.17348572611808777,0.14538592100143433
1790333706208512300,16.66851220703125,-0.005497787147760391,0.04337143152952194,0.02015855349600315
1790333706224911600,16.68491162109375,0.005497787147760391,0.10506882518529892,0.02932153269648552
1790333706241360400,16.7013603515625,0.016493361443281174,0.00366519158706069,0.04092797264456749
1790333706257819100,16.717819091796876,0.03787364438176155,-0.19975294172763824,-0.08246681094169617
1790333706274256000,16.734255859375,-0.018325956538319588,0.033597588539123535,-0.00855211354792118
1790333706290739200,16.7507392578125,0.02382374368607998,0.09773843735456467,0.02076941914856434
1790333706307169800,16.767169677734376,0.0708603709936142,0.03481931984424591,-0.025045474991202354
1790333706323608600,16.783608642578123,-0.0006108652451075613,0.1618792861700058,0.033597588539123535
1790333706340068600,16.800068603515626,0.02932153269648552,0.021380282938480377,0.031154127791523933
1790333706356562000,16.81656201171875,-0.06414084881544113,0.19608774781227112,0.10445795953273773
1790333706372992000,16.832991943359374,-0.03848451003432274,0.38728857040405273,0.21991148591041565
1790333706389424000,16.849424072265624,0.030543262138962746,0.4599815309047699,0.13255776464939117
1790333706405855000,16.86585498046875,0.10995574295520782,0.41172316670417786,0.24556782841682434
1790333706422287000,16.882287109375,0.18081611394882202,0.313373863697052,0.17287486791610718
1790333706438719500,16.898719482421875,0.41172316670417786,-0.30543261766433716,0.28527405858039856
1790333706455150300,16.915150390625,0.2638937830924988,-0.2474004179239273,0.3695734739303589
1790333706471582700,16.931582763671877,0.1563815027475357,0.28466320037841797,0.9089674949645996
1790333706488020000,16.94802001953125,0.21563543379306793,0.45204028487205505,0.7874053120613098
1790333706504451600,16.96445166015625,-0.21441370248794556,-0.1111774742603302,0.6475171446800232
1790333706520884500,16.980884521484374,-0.5949827432632446,0.20341812074184418,0.25045475363731384
1790333706537208300,16.997208251953126,-0.5296201705932617,1.112385630607605,-0.060475658625364304
1790333706553639700,17.0136396484375,-0.4184426963329315,1.5173892974853516,-0.07208210229873657
1790333706570070800,17.03007080078125,-0.2828305959701538,1.186300277709961,0.02382374368607998
1790333706586500000,17.0465,-0.1667662113904953,0.42638394236564636,-0.04886921867728233
1790333706602961000,17.0629609375,-0.21624629199504852,-0.694553792476654,0.2742784917354584
1790333706619394800,17.079394775390625,-0.33169981837272644,-0.9376781582832336,0.5900958180427551
1790333706635826200,17.095826171875,-0.4300491213798523,-1.7385225296020508,1.0458012819290161
1790333706652258800,17.1122587890625,-0.1368338167667389,-1.6090190410614014,0.8808676600456238
1790333706668690000,17.12868994140625,0.08491026610136032,-0.2816088795661926,0.7843509912490845
1790333706685121500,17.14512158203125,0.29504790902137756,1.4184291362762451,0.16371189057826996
1790333706701552600,17.161552734375,0.37201693654060364,1.9730947017669678,-0.3646865487098694
1790333706717982200,17.177982177734375,0.6829473376274109,2.023796558380127,-0.9749409556388855
1790333706734418200,17.194418212890625,0.3836233615875244,2.2394320964813232,-1.6242907047271729
1790333706750848800,17.210848876953126,0.22602014243602753,1.244943380355835,-1.7269160747528076
1790333706767281200,17.22728125,0.13744467496871948,0.9749409556388855,-1.474017858505249
1790333706783713300,17.24371337890625,-0.3237585723400116,1.102611780166626,-0.7452555894851685
1790333706800144000,17.260143798828125,-0.5259549617767334,0.18081611394882202,-0.02015855349600315
1790333706816578000,17.276578125,-0.3017674386501312,-0.060475658625364304,0.42149701714515686
1790333706833012000,17.293011962890624,0.5552765130996704,0.8912523984909058,-0.4954117238521576
1790333706849476600,17.3094765625,0.45326200127601624,-0.7055493593215942,-0.5571091175079346
1790333706865913600,17.32591357421875,-0.0659734457731247,-0.13988813757896423,-0.15027284622192383
1790333706882350600,17.3423505859375,-0.192422553896904,-0.4862487316131592,0.43127086758613586
1790333706898787300,17.358787353515623,-0.2217440903186798,-0.6688974499702454,0.45875978469848633
1790333706915222800,17.375222900390625,-0.3078760802745819,-2.727513313293457,0.7556403279304504
1790333706931530000,17.391530029296874,-0.04581489413976669,-1.9443840980529785,0.04886921867728233
1790333706947966700,17.407966796875,0.4092797040939331,0.0910189226269722,-0.16065755486488342
1790333706964404000,17.424404052734374,0.26939156651496887,0.44837507605552673,-0.24556782841682434
1790333706979863600,17.439863525390624,0.26450464129447937,0.042760565876960754,-0.2565633952617645
1790333706996303000,17.45630322265625,0.13805554807186127,-1.2681562900543213,-0.44654250144958496
1790333707012740400,17.472740234375,0.04214970022439957,-1.605353832244873,-0.323147714138031
1790333707029176600,17.489176513671875,-0.21807889640331268,-2.0366246700286865,-0.3182607889175415
1790333707045613300,17.50561328125,-0.43737950921058655,-1.36650550365448,-0.0024434609804302454
1790333707062052000,17.522052001953124,0.10384709388017654,0.749531626701355,-0.28466320037841797
1790333707078545200,17.538545166015624,0.5485569834709167,-0.6682865619659424,-0.26511552929878235
1790333707094965800,17.5549658203125,0.5632177591323853,0.3341432809829712,0.18875735998153687
1790333707111405800,17.57140576171875,-0.015882495790719986,-0.006719517521560192,-0.13072516024112701
1790333707127842800,17.5878427734375,0.0959058403968811,-0.3219259977340698,-0.40133845806121826
1790333707144280600,17.604280517578125,0.07880161702632904,-0.1160643994808197,-0.03176499158143997
1790333707160717000,17.620717041015624,0.06475171446800232,-0.10812314599752426,-0.11789698898792267
1790333707177161700,17.63716162109375,0.021380282938480377,-0.28099802136421204,-0.33597588539123535
1790333707193598000,17.653597900390626,-0.18875735998153687,-0.06780604273080826,-0.7043276429176331
1790333707209894100,17.66989404296875,-0.6346889734268188,0.9101892113685608,-0.797789990901947
1790333707226316800,17.68631689453125,-0.8735373020172119,1.1844676733016968,-0.18570303916931152
1790333707242753000,17.7027529296875,-0.2620611786842346,1.9394971132278442,0.03420845419168472
1790333707259192000,17.719192138671875,-0.3836233615875244,1.3274102210998535,-0.22418753802776337
1790333707275634400,17.735634521484375,-0.43615779280662537,0.0555887371301651,-0.5540547966957092
1790333707292074000,17.752073974609374,-0.22357667982578278,0.34758231043815613,-0.3237585723400116
1790333707308514600,17.7685146484375,-0.30054569244384766,0.6627888083457947,-0.37079519033432007
1790333707324953300,17.784953369140624,-0.1618792861700058,0.3842342495918274,0.06963863968849182
1790333707341420800,17.8014208984375,-0.14416420459747314,0.5797111392021179,0.22113321721553802
1790333707357859600,17.817859619140624,-0.1966986060142517,0.2919935882091522,-0.1563815027475357
1790333707374295600,17.834295654296874,-0.16982053220272064,0.010995574295520782,-0.1875356286764145
1790333707390733800,17.85073388671875,-0.1160643994808197,-0.021380282938480377,-0.1472185254096985
1790333707407171800,17.867171875,-0.17104226350784302,0.05864306539297104,-0.19058994948863983
1790333707423609000,17.883609130859377,-0.3243694305419922,-0.012217304669320583,-0.6334672570228577
1790333707440047400,17.90004736328125,-0.251676470041275,-0.06658431142568588,-0.7244861721992493
1790333707456486700,17.916486572265626,-0.1459967941045761,0.0024434609804302454,-0.05925392732024193
1790333707472933400,17.932933349609375,-0.05192354694008827,-0.17287486791610718,-0.018325956538319588
1790333707489376300,17.949376220703126,-0.0708603709936142,-0.03298672288656235,-0.06475171446800232
1790333707505850000,17.96585009765625,-0.18020524084568024,-0.005497787147760391,-0.10690141469240189
1790333707522290000,17.9822900390625,-0.3585779070854187,0.018325956538319588,-0.29504790902137756
1790333707538729700,17.998729736328126,-0.36651915311813354,0.02076941914856434,-0.2565633952617645
1790333707555168800,18.015168701171874,-0.1258382350206375,-0.23151792585849762,-0.04764748737215996
1790333707571606500,18.0316064453125,-0.010995574295520782,0.05314527451992035,-0.0354301854968071
1790333707588105000,18.04810498046875,-0.00855211354792118,0.4453207552433014,-0.06963863968849182
1790333707604542500,18.06454248046875,-0.22296582162380219,0.826500654220581,-0.059864792972803116
1790333707620979000,18.08097900390625,-0.15760323405265808,1.1441506147384644,0.2321287989616394
1790333707637420300,18.097420166015624,-0.2565633952617645,1.5241087675094604,0.6163630485534668
1790333707653858300,18.1138583984375,-0.34208452701568604,-1.4471397399902344,0.21319197118282318
1790333707670295800,18.1302958984375,-0.7660250067710876,0.2730567753314972,0.18875735998153687
1790333707686733600,18.146733642578123,-1.0030407905578613,-0.16310101747512817,0.06536258012056351
1790333707703170600,18.163170654296874,-0.7415903806686401,-0.14966198801994324,0.10751228034496307
1790333707719611000,18.17961083984375,-0.14416420459747314,-0.12828169763088226,0.07452555745840073
1790333707736073500,18.196073486328125,-0.0354301854968071,0.03481931984424591,0.03176499158143997
1790333707752509700,18.212509765625,-0.015271631069481373,-0.04092797264456749,0.060475658625364304
1790333707768998400,18.228998291015625,-0.06963863968849182,0.11789698898792267,0.02932153269648552
1790333707785438200,18.245438232421876,-0.010995574295520782,-0.00733038317412138,0.06841690838336945
1790333707801887700,18.2618876953125,0.182648703455925,-0.7269296646118164,0.4648684561252594
1790333707818326500,18.278326416015624,0.5662720799446106,-1.2418889999389648,1.2400563955307007
1790333707834794200,18.294794189453125,0.6542366743087769,-1.521665334701538,1.2657127380371094
1790333707851235600,18.311235595703124,0.799011766910553,-1.72935950756073,1.1814134120941162
1790333707867675000,18.3276748046875,0.8338310718536377,-1.1062769889831543,0.6921103000640869
1790333707884116500,18.344116455078126,0.4105014503002167,-0.2223549485206604,0.41599923372268677
1790333707900591400,18.36059130859375,0.15332718193531036,-0.0354301854968071,0.28649580478668213
1790333707917033000,18.377032958984376,0.1111774742603302,-0.02076941914856434,0.24068090319633484
1790333707933474000,18.39347412109375,0.1411098688840866,-0.10567969083786011,0.09834930300712585
1790333707949928400,18.409928466796874,0.13927727937698364,-0.0659734457731247,0.0403171069920063
1790333707966429400,18.426429443359375,0.21807889640331268,-0.11850785464048386,0.036041051149368286
1790333707982897200,18.442897216796876,0.34208452701568604,0.022602014243602753,0.05192354694008827
1790333707999335700,18.459335693359375,0.7110471725463867,-0.15271630883216858,0.27977627515792847
1790333708015775200,18.475775146484374,0.6939429044723511,0.09285151958465576,0.6010913848876953
1790333708032215300,18.49221533203125,0.8827002644538879,-0.7159340381622314,0.988990843296051
1790333708048654600,18.508654541015623,0.7929030656814575,-0.7648032903671265,1.0574077367782593
1790333708065095700,18.525095703125,0.45692721009254456,-0.6041457056999207,0.827111542224884
1790333708081513000,18.541512939453124,0.23090706765651703,-0.3591887652873993,0.2638937830924988
1790333708097957400,18.557957275390624,-0.18509216606616974,0.8759807348251343,-0.16859880089759827
1790333708114398200,18.574398193359375,-0.34208452701568604,0.12339477986097336,0.0012217304902151227
1790333708130838500,18.590838623046874,-0.2015855312347412,0.9089674949645996,-0.12400564551353455
1790333708147276500,18.607276611328125,0.09773843735456467,0.6640105247497559,-0.5351179838180542
1790333708163690800,18.623690673828126,0.4703662395477295,-0.6395758986473083,-0.3078760802745819
1790333708180128500,18.64012841796875,0.7422012686729431,-0.24068090319633484,-0.07147123664617538
1790333708196565500,18.6565654296875,0.49357911944389343,-0.22968533635139465,0.06719517707824707
1790333708213007400,18.67300732421875,0.31520646810531616,-0.3738495409488678,0.3139847218990326
1790333708229445000,18.689445068359376,-0.00366519158706069,-0.08918632566928864,0.21624629199504852
1790333708245880600,18.705880615234374,-0.19364428520202637,0.20586158335208893,0.1160643994808197
1790333708262350600,18.7223505859375,-0.43188172578811646,-0.13988813757896423,0.5894849896430969
1790333708278784300,18.7387841796875,0.2376265823841095,-0.32498031854629517,-0.1258382350206375
1790333708295217700,18.7552177734375,0.20097467303276062,-0.636521577835083,-0.3995058834552765
1790333708311652000,18.771652099609376,0.02871066704392433,-0.01771509274840355,-0.08735372871160507
1790333708328106000,18.78810595703125,-0.0861319974064827,0.045204028487205505,-0.04948008432984352
1790333708344539100,18.8045390625,0.09468411654233932,0.029932396486401558,0.26939156651496887
1790333708360971800,18.8209716796875,0.1973094791173935,-0.0555887371301651,0.3176499307155609
1790333708377406200,18.83740625,0.13988813757896423,0.033597588539123535,0.1966986060142517
1790333708393838300,18.85383837890625,0.1062905490398407,-0.00733038317412138,-0.1765400618314743
1790333708410270500,18.8702705078125,0.13316862285137177,-0.12828169763088226,-0.13866640627384186
1790333708426704000,18.886703857421875,0.18936823308467865,0.036651913076639175,-0.025045474991202354
1790333708443138600,18.903138671875,0.15271630883216858,0.025045474991202354,0.1563815027475357
1790333708459580200,18.919580078125,-0.4251621961593628,4.169765949249268,-3.564398765563965
1790333708476014800,18.936014892578125,-0.3805690407752991,1.2962560653686523,0.1007927656173706
1790333708492450800,18.952450927734375,-0.5907067060470581,1.7550158500671387,1.0427470207214355
1790333708508886000,18.968885986328125,0.5106833577156067,0.323147714138031,0.9871582388877869
1790333708525317600,18.985317626953126,0.6609562039375305,-1.2229522466659546,1.7122552394866943
1790333708541748500,19.00174853515625,-0.3121521472930908,0.47830748558044434,1.9022343158721924
1790333708558182100,19.01818212890625,-0.16493362188339233,0.7263187766075134,0.2431243658065796
1790333708574643000,19.034642822265624,-0.9639453291893005,0.6688974499702454,-0.2474004179239273
1790333708591076000,19.051076171875,-0.13988813757896423,0.05925392732024193,0.2076941877603531
1790333708607504600,19.067504638671874,0.5448917746543884,-3.489262342453003,-1.1020009517669678
1790333708623936000,19.08393603515625,1.1545352935791016,-4.265672206878662,-0.7715228199958801
1790333708640370000,19.100369873046876,0.4801400899887085,-1.7330247163772583,0.8741481900215149
1790333708656805600,19.1168056640625,0.13866640627384186,-2.2046127319335938,1.3072515726089478
1790333708673239000,19.133239013671876,1.2229522466659546,-0.5632177591323853,0.5345070958137512
1790333708689672200,19.149672119140625,1.1954632997512817,-0.09712757170200348,0.08307767659425735
1790333708706110700,19.16611083984375,1.253495454788208,0.413555771112442,-0.4031710624694824
1790333708722544000,19.182544189453125,1.292590856552124,-0.10934487730264664,-1.2669345140457153
1790333708738979300,19.198979248046875,1.3335188627243042,0.2669481039047241,-1.976149082183838
1790333708755416300,19.215416259765625,1.216843605041504,0.9706648588180542,-2.1618521213531494
1790333708771854000,19.23185400390625,0.5516113042831421,1.2034045457839966,-2.4434609413146973
1790333708788291300,19.248291259765626,-0.323147714138031,2.855794906616211,-3.393967390060425
1790333708804729000,19.26472900390625,-0.9816604256629944,3.397632598876953,-2.5271494388580322
1790333708821196500,19.281196533203126,-1.007927656173706,3.015230894088745,-1.7537940740585327
1790333708837636600,19.29763671875,-0.04764748737215996,0.21319197118282318,-0.1918116807937622
1790333708854077200,19.3140771484375,-0.03481931984424591,-0.13744467496871948,0.18020524084568024
1790333708870514700,19.3305146484375,-0.0354301854968071,-0.003054326167330146,-0.01466076634824276
1790333708886982700,19.346982666015624,-0.04214970022439957,-0.018936822190880775,-0.021991148591041565
1790333708903453400,19.363453369140625,-0.06780604273080826,-0.11362093687057495,0.10567969083786011
1790333708919918600,19.379918701171874,-0.1722639948129654,-0.04214970022439957,-0.11362093687057495
1790333708936353800,19.396353759765624,-0.3066543638706207,-0.029932396486401558,-0.30604347586631775
1790333708952800000,19.412800048828124,-0.4502076804637909,-0.31093040108680725,-0.33719760179519653
1790333708969235500,19.4292353515625,-0.3090978264808655,-0.3090978264808655,-0.2480112910270691
1790333708985669400,19.44566943359375,-0.07208210229873657,-0.4043927788734436,0.05742133408784866
1790333709002108700,19.462108642578126,-0.07330382615327835,-0.11728613078594208,-0.17470745742321014
1790333709018545000,19.478544921875,-0.23396138846874237,0.0012217304902151227,-0.4343251883983612
1790333709034985000,19.49498486328125,-0.41599923372268677,0.09712757170200348,-0.7006624341011047
1790333709051419600,19.511419677734374,-0.3194825351238251,0.45631635189056396,-0.9388998746871948
1790333709067884300,19.52788427734375,-0.21807889640331268,0.8570439219474792,-0.9175195693969727
1790333709084355600,19.54435546875,-0.05375614017248154,0.7507534027099609,-0.6792821288108826
1790333709100790500,19.56079052734375,0.025045474991202354,1.0213667154312134,-0.6914994716644287
1790333709117228300,19.577228271484376,-0.033597588539123535,1.150259256362915,-0.749531626701355
1790333709133663000,19.5936630859375,0.02626720629632473,-1.0085384845733643,-0.44226643443107605
1790333709150098200,19.61009814453125,0.08491026610136032,-0.8625417351722717,-0.503963828086853
1790333709166533400,19.626533447265626,0.13072516024112701,-0.0403171069920063,-0.41172316670417786
1790333709182967800,19.6429677734375,0.039706241339445114,0.22907446324825287,-0.27000242471694946
1790333709199410700,19.65941064453125,0.18020524084568024,0.0708603709936142,-0.1612684279680252
1790333709215709000,19.675708984375,0.07635815441608429,0.4001167416572571,-0.07819075137376785
1790333709232144600,19.69214453125,0.07757988572120667,0.039095375686883926,-0.05375614017248154
1790333709248578300,19.708578369140625,0.0024434609804302454,0.17409659922122955,-0.05864306539297104
1790333709265011000,19.725010986328126,-0.025045474991202354,0.8399397134780884,-0.045204028487205505
1790333709281449000,19.741448974609376,0.05253441259264946,0.543059229850769,0.07819075137376785
1790333709297884400,19.757884521484375,0.09162978827953339,0.5088507533073425,0.07880161702632904
1790333709314353400,19.774353515625,0.23335053026676178,0.13927727937698364,0.12950342893600464
1790333709330789600,19.79078955078125,0.14049901068210602,0.5638286471366882,0.16493362188339233
1790333709347226400,19.807226318359376,0.17348572611808777,0.1716531366109848,0.14905111491680145
1790333709363663400,19.823663330078126,0.1062905490398407,0.4251621961593628,0.13072516024112701
1790333709380098800,19.840098876953125,-0.030543262138962746,0.2816088795661926,0.06291911751031876
1790333709396534500,19.856534423828126,-0.10262536257505417,0.3695734739303589,-0.006108652334660292
1790333709412969000,19.872968994140624,-0.1466076523065567,0.6310238242149353,0.01466076634824276
1790333709429402000,19.889402099609374,-0.025656340643763542,0.1160643994808197,-0.08674286305904388
1790333709445841700,19.905841552734376,-0.0861319974064827,0.33597588539123535,-0.22907446324825287
1790333709462276000,19.922276123046874,-0.045204028487205505,0.039706241339445114,-0.21074850857257843
1790333709478711000,19.9387109375,-0.31581732630729675,-0.35063666105270386,-0.2718350291252136
1790333709495144000,19.95514404296875,-0.6102544069290161,-0.4740314185619354,-0.35552358627319336
1790333709511577900,19.971577880859375,-0.33475416898727417,0.9547823667526245,-0.6157521605491638
1790333709528014300,19.988014404296877,-0.5858197808265686,0.8704829812049866,-0.06475171446800232
1790333709544451000,20.004451171875,-0.005497787147760391,0.304210901260376,-0.06291911751031876
1790333709560917800,20.020917724609376,0.04337143152952194,0.5516113042831421,-0.00733038317412138
1790333709577353000,20.03735302734375,-0.019547687843441963,0.6206390857696533,0.06475171446800232
1790333709593790700,20.053790771484376,-0.12461651116609573,0.4648684561252594,0
1790333709610230500,20.07023046875,-0.22357667982578278,0.1716531366109848,-0.02076941914856434
1790333709626669000,20.0866689453125,-0.23457226157188416,-0.05803219974040985,-0.03176499158143997
1790333709643105000,20.10310498046875,-0.16371189057826996,-0.14233160018920898,-0.021991148591041565
1790333709659542500,20.11954248046875,0.025045474991202354,-0.4715879559516907,0.12339477986097336
1790333709675979000,20.13597900390625,0.001832595793530345,0.18081611394882202,0.26145032048225403
1790333709692426200,20.15242626953125,0.413555771112442,-0.8436049222946167,0.8949176073074341
1790333709708864500,20.168864501953124,0.5461135506629944,-2.9547553062438965,0.646295428276062
1790333709725303800,20.1853037109375,0.2687807083129883,-0.4080579876899719,0.015271631069481373
1790333709741743600,20.20174365234375,0.06719517707824707,0.09407325088977814,0.6377432942390442
1790333709758183000,20.218182861328124,0.6878342628479004,-0.17287486791610718,0.8008443117141724
1790333709774619100,20.234619140625,0.9645562171936035,0.6591235995292664,0.35674530267715454
