time,seconds_elapsed,z,y,x
1790333689670682000,0.13068212890625,-0.03298672288656235,0.01771509274840355,-0.10567969083786011
1790333689687017500,0.147017578125,-0.03298672288656235,0.01771509274840355,-0.10567969083786011
1790333689703532500,0.163532470703125,-0.03298672288656235,0.01771509274840355,-0.10567969083786011
1790333689720002000,0.180001953125,-0.03298672288656235,0.01771509274840355,-0.10567969083786011
1790333689736523000,0.19652294921875,-0.03298672288656235,0.01771509274840355,-0.10567969083786011
1790333689753015800,0.213015869140625,-0.03298672288656235,0.01771509274840355,-0.10567969083786011
1790333689769460500,0.22946044921875,-0.03298672288656235,0.01771509274840355,-0.10567969083786011
1790333689785968600,0.24596875,0.1270599663257599,-0.37201693654060364,0.34697145223617554
1790333689802317000,0.262317138671875,0.16004669666290283,-0.33169981837272644,0.4404338300228119
1790333689818737000,0.27873681640625,0.21135938167572021,-0.2681698501110077,0.4703662395477295
1790333689835115500,0.295115478515625,0.17043140530586243,-0.3891211748123169,0.4056145250797272
1790333689851586000,0.3115859375,0.14966198801994324,-0.4331034719944,0.3243694305419922
1790333689868059000,0.328058837890625,0.1667662113904953,-0.3225368559360504,0.2724458873271942
1790333689884529700,0.34452978515625,0.22418753802776337,-0.11178833991289139,0.2620611786842346
1790333689900973000,0.36097314453125,0.24556782841682434,-0.07757988572120667,0.2565633952617645
1790333689917469000,0.377468994140625,0.2064724564552307,-0.12034045159816742,0.26083946228027344
1790333689933853200,0.393853271484375,0.16310101747512817,-0.1472185254096985,0.2767219543457031
1790333689950365700,0.41036572265625,0.11789698898792267,-0.05375614017248154,0.2938261926174164
1790333689966808600,0.42680859375,0.11911872029304504,0.059864792972803116,0.2974913716316223
1790333689983251000,0.4432509765625,0.07208210229873657,-0.01710422709584236,0.2742784917354584
1790333689999710500,0.45971044921875,0.02076941914856434,-0.03787364438176155,0.2321287989616394
1790333690016158000,0.476157958984375,0.01038470957428217,-0.01771509274840355,0.18875735998153687
1790333690032671200,0.492671142578125,0.05253441259264946,0.09346238523721695,0.1722639948129654
1790333690049124600,0.50912451171875,0.06352998316287994,0.07208210229873657,0.17592918872833252
1790333690065564200,0.525564208984375,0.04214970022439957,0.004886921960860491,0.1875356286764145
1790333690082023000,0.54202294921875,0.012828170321881771,-0.02871066704392433,0.18570303916931152
1790333690098488800,0.55848876953125,0.021991148591041565,0.039095375686883926,0.17287486791610718
1790333690114962700,0.574962646484375,0.05497787147760391,0.10567969083786011,0.1569923609495163
1790333690131405000,0.591405029296875,0.03787364438176155,0.025045474991202354,0.12400564551353455
1790333690147845600,0.607845703125,0.03726277872920036,-0.03298672288656235,0.10812314599752426
1790333690164315000,0.62431494140625,0.03848451003432274,-0.06352998316287994,0.1014036312699318
1790333690180762400,0.640762451171875,0.06230825558304787,0.03481931984424591,0.12217304855585098
1790333690197234200,0.657234130859375,0.04459316283464432,0.02932153269648552,0.1062905490398407
1790333690213709800,0.673709716796875,0.01710422709584236,-0.0012217304902151227,0.07452555745840073
1790333690230176800,0.6901767578125,0.005497787147760391,-0.01160643994808197,0.056810468435287476
1790333690246667800,0.706667724609375,0.009162978269159794,0.022602014243602753,0.05619960278272629
1790333690263142400,0.723142333984375,0.04092797264456749,0.07452555745840073,0.05803219974040985
1790333690279647200,0.739647216796875,0.018325956538319588,-0.04948008432984352,0.033597588539123535
1790333690296125700,0.756125732421875,0.00366519158706069,-0.07819075137376785,0.00733038317412138
1790333690312598000,0.772597900390625,-0.003054326167330146,-0.05253441259264946,-0.012828170321881771
1790333690329089800,0.78908984375,0.02871066704392433,0.08124507963657379,-0.006719517521560192
1790333690345570000,0.805570068359375,0.01160643994808197,0.02687807008624077,-0.01160643994808197
1790333690362038300,0.822038330078125,-0.009162978269159794,-0.0354301854968071,-0.004886921960860491
1790333690378512600,0.8385126953125,-0.00733038317412138,-0.07330382615327835,0.00427605677396059
1790333690394986000,0.854986083984375,0.012828170321881771,-0.01160643994808197,0.025656340643763542
1790333690411473400,0.871473388671875,0.045204028487205505,0.048258353024721146,0.0507018156349659
1790333690427956700,0.887956787109375,0.01466076634824276,-0.08918632566928864,0.039706241339445114
1790333690444343600,0.904343505859375,0.00733038317412138,-0.11423180252313614,0.03481931984424591
1790333690460843800,0.92084375,-0.0006108652451075613,-0.08918632566928864,0.025656340643763542
1790333690477314600,0.937314453125,0.027488935738801956,0.04459316283464432,0.024434609338641167
1790333690493803800,0.9538037109375,0.02626720629632473,0.05375614017248154,0.012828170321881771
1790333690510282200,0.9702822265625,-0.01466076634824276,-0.0403171069920063,-0.0024434609804302454
1790333690526783700,0.98678369140625,-0.014049900695681572,-0.051312681287527084,0.0006108652451075613
1790333690543268600,1.0032685546875,0.0012217304902151227,-0.03420845419168472,-0.00366519158706069
1790333690559743200,1.0197431640625,0.039706241339445114,0.05742133408784866,0.010995574295520782
1790333690576237800,1.03623779296875,0.021991148591041565,-0.0403171069920063,-0.001832595793530345
1790333690592744400,1.052744384765625,-0.0012217304902151227,-0.10812314599752426,-0.0012217304902151227
1790333690609216500,1.069216552734375,-0.007941247895359993,-0.07452555745840073,0.006719517521560192
1790333690625704400,1.085704345703125,0.015271631069481373,0.051312681287527084,0.018325956538319588
1790333690642150700,1.102150634765625,0.036041051149368286,0.10262536257505417,0.02382374368607998
1790333690658644700,1.118644775390625,-0.003054326167330146,-0.025656340643763542,0.003054326167330146
1790333690675120600,1.13512060546875,-0.01466076634824276,-0.06902777403593063,-0.0006108652451075613
1790333690691620600,1.15162060546875,-0.01466076634824276,-0.031154127791523933,0.003054326167330146
1790333690708106000,1.16810595703125,0.013439035043120384,0.09407325088977814,0.018325956538319588
1790333690724582100,1.18458203125,-0.00733038317412138,0.05192354694008827,0.009162978269159794
1790333690741077800,1.201077880859375,-0.03237585723400116,-0.03176499158143997,-0.0012217304902151227
1790333690757569500,1.217569580078125,-0.0403171069920063,-0.04337143152952194,0.00427605677396059
1790333690774070800,1.23407080078125,-0.02076941914856434,0.054367005825042725,0.02015855349600315
1790333690790542800,1.25054296875,0.00427605677396059,0.10018189996480942,0.03237585723400116
1790333690807043300,1.267043212890625,-0.02687807008624077,-0.0024434609804302454,0.018325956538319588
1790333690823513300,1.283513427734375,-0.03237585723400116,-0.014049900695681572,0.02015855349600315
1790333690840010800,1.3000107421875,-0.03726277872920036,-0.01160643994808197,0.022602014243602753
1790333690856512000,1.316511962890625,-0.00427605677396059,0.10018189996480942,0.04948008432984352
1790333690872969700,1.3329697265625,-0.015271631069481373,0.042760565876960754,0.04642575979232788
1790333690889444600,1.349444580078125,-0.04092797264456749,-0.036041051149368286,0.03848451003432274
1790333690905911000,1.3659111328125,-0.04642575979232788,-0.030543262138962746,0.02932153269648552
1790333690922392300,1.382392333984375,-0.02932153269648552,0.054367005825042725,0.04092797264456749
1790333690938864000,1.398864013671875,-0.009162978269159794,0.13011430203914642,0.06719517707824707
1790333690955342000,1.415342041015625,-0.03237585723400116,0.036651913076639175,0.06414084881544113
1790333690971846000,1.431845947265625,-0.05253441259264946,-0.02626720629632473,0.06658431142568588
1790333690988341200,1.44834130859375,-0.056810468435287476,-0.031154127791523933,0.06536258012056351
1790333691004820000,1.464820068359375,-0.027488935738801956,0.0708603709936142,0.07513642311096191
1790333691021305300,1.481305419921875,-0.021991148591041565,0.0861319974064827,0.0757472887635231
1790333691037783600,1.497783447265625,-0.05253441259264946,0.02076941914856434,0.06108652427792549
1790333691054257200,1.514257080078125,-0.07330382615327835,-0.00366519158706069,0.05803219974040985
1790333691070731500,1.5307314453125,-0.06230825558304787,0.07269296050071716,0.08246681094169617
1790333691087203000,1.547203125,-0.027488935738801956,0.1716531366109848,0.13988813757896423
1790333691103723000,1.563722900390625,-0.03298672288656235,0.08246681094169617,0.16798794269561768
1790333691120193800,1.58019384765625,-0.036651913076639175,-0.0354301854968071,0.16371189057826996
1790333691136660000,1.596659912109375,-0.03176499158143997,-0.08307767659425735,0.13988813757896423
1790333691153144600,1.61314453125,-0.005497787147760391,0.05009094998240471,0.1368338167667389
1790333691169605000,1.629605224609375,-0.012217304669320583,0.06658431142568588,0.1264491081237793
1790333691186071600,1.646071533203125,-0.024434609338641167,0.001832595793530345,0.10445795953273773
1790333691202573800,1.66257373046875,-0.02382374368607998,-0.06169738993048668,0.09285151958465576
1790333691219059500,1.6790595703125,-0.0012217304902151227,-0.042760565876960754,0.08735372871160507
1790333691235549200,1.695549072265625,0.039706241339445114,0.018936822190880775,0.08246681094169617
1790333691252033500,1.712033447265625,0.02687807008624077,-0.07757988572120667,0.06658431142568588
1790333691268485000,1.728485107421875,0.015271631069481373,-0.09162978827953339,0.07391469180583954
1790333691284960500,1.74496044921875,0.02015855349600315,-0.015882495790719986,0.07880161702632904
1790333691301433000,1.76143310546875,0.04642575979232788,0.13011430203914642,0.09407325088977814
1790333691317921000,1.777921142578125,0.060475658625364304,0.17409659922122955,0.10018189996480942
1790333691334387700,1.7943876953125,0.05375614017248154,0.07391469180583954,0.08979719132184982
1790333691350854000,1.81085400390625,0.04764748737215996,-0.006719517521560192,0.08796459436416626
1790333691367323100,1.8273232421875,0.04398229718208313,0.02932153269648552,0.09651670604944229
1790333691383760600,1.8437607421875,0.05497787147760391,0.12522737681865692,0.09896016865968704
1790333691400245200,1.860245361328125,0.031154127791523933,0.07391469180583954,0.06230825558304787
1790333691416712200,1.876712158203125,0.005497787147760391,0.00855211354792118,0.019547687843441963
1790333691433214200,1.893214111328125,-0.00366519158706069,0.0024434609804302454,0.001832595793530345
1790333691449640200,1.90964013671875,0.009773843921720982,0.05497787147760391,0.025045474991202354
1790333691465198800,1.92519873046875,0.031154127791523933,0.08124507963657379,0.05314527451992035
1790333691481697800,1.94169775390625,0.007941247895359993,-0.02626720629632473,0.04886921867728233
1790333691498182100,1.95818212890625,-0.01771509274840355,-0.08429940044879913,0.042760565876960754
1790333691514680800,1.974680908203125,-0.02382374368607998,-0.018325956538319588,0.04703662544488907
1790333691531156500,1.991156494140625,0.01160643994808197,0.12828169763088226,0.05803219974040985
1790333691547592700,2.0075927734375,0.02015855349600315,0.09285151958465576,0.0555887371301651
1790333691564088000,2.024088134765625,-0.005497787147760391,-0.03726277872920036,0.05009094998240471
1790333691580584200,2.040584228515625,-0.028099801391363144,-0.08979719132184982,0.05009094998240471
1790333691597055200,2.05705517578125,-0.02932153269648552,-0.02076941914856434,0.05314527451992035
1790333691613529600,2.073529541015625,0,0.19914206862449646,0.06719517707824707
1790333691630033700,2.09003369140625,-0.01466076634824276,0.01160643994808197,0.006108652334660292
1790333691646500600,2.10650048828125,-0.02687807008624077,-0.15882496535778046,-0.0507018156349659
1790333691662965200,2.12296533203125,-0.04948008432984352,-0.2125810980796814,-0.06658431142568588
1790333691679464700,2.139464599609375,-0.04764748737215996,-0.16310101747512817,-0.05253441259264946
1790333691695974400,2.155974365234375,-0.06230825558304787,-0.21624629199504852,-0.054367005825042725
1790333691712446700,2.17244677734375,-0.09834930300712585,-0.3243694305419922,-0.06291911751031876
1790333691728922000,2.188922119140625,-0.10201449692249298,-0.2724458873271942,-0.06230825558304787
1790333691745373700,2.205373779296875,-0.05497787147760391,-0.19058994948863983,-0.12217304855585098
1790333691761844500,2.221844482421875,0.05742133408784866,-0.054367005825042725,-0.18875735998153687
1790333691778318600,2.238318603515625,0.06352998316287994,0.02382374368607998,-0.19120082259178162
1790333691794784000,2.254783935546875,0.02932153269648552,0.007941247895359993,-0.12217304855585098
1790333691811279400,2.271279296875,0.0012217304902151227,-0.0354301854968071,-0.06902777403593063
1790333691827827500,2.287827392578125,0.02382374368607998,0.03237585723400116,-0.03726277872920036
1790333691844328000,2.304327880859375,0.0354301854968071,0.030543262138962746,-0.04153883829712868
1790333691860808200,2.32080810546875,0,-0.11362093687057495,-0.0708603709936142
1790333691877251800,2.337251953125,-0.01160643994808197,-0.1270599663257599,-0.07635815441608429
1790333691893743600,2.35374365234375,0.009162978269159794,0.0024434609804302454,-0.06536258012056351
1790333691910193700,2.370193603515625,0.0507018156349659,0.1368338167667389,-0.04948008432984352
1790333691926690000,2.38668994140625,0.024434609338641167,0.04703662544488907,-0.04764748737215996
1790333691943177200,2.40317724609375,0.018936822190880775,-0.031154127791523933,-0.03298672288656235
1790333691959654100,2.419654052734375,0.02015855349600315,-0.051312681287527084,0.0012217304902151227
1790333691976146200,2.436146240234375,0.05619960278272629,0.06780604273080826,0.048258353024721146
1790333691992620300,2.452620361328125,0.05803219974040985,0.04153883829712868,0.04703662544488907
1790333692009099300,2.469099365234375,0.04642575979232788,-0.022602014243602753,0.02871066704392433
1790333692025579500,2.48557958984375,0.042760565876960754,-0.015271631069481373,0.018936822190880775
1790333692042006800,2.5020068359375,0.060475658625364304,0.05803219974040985,0.018936822190880775
1790333692058494500,2.518494384765625,0.07941248267889023,0.12522737681865692,0.03237585723400116
1790333692074886400,2.534886474609375,0.0507018156349659,0.02321287989616394,0.03726277872920036
1790333692091358000,2.55135791015625,0.021991148591041565,-0.01710422709584236,0.05742133408784866
1790333692107835600,2.567835693359375,0.012217304669320583,0.007941247895359993,0.04337143152952194
1790333692123364000,2.583364013671875,0.039095375686883926,0.07757988572120667,0.025045474991202354
1790333692139836000,2.5998359375,0.04581489413976669,0.08796459436416626,-0.010995574295520782
1790333692156326700,2.61632666015625,0.0012217304902151227,-0.012828170321881771,-0.018325956538319588
1790333692172785700,2.63278564453125,-0.01710422709584236,-0.018325956538319588,-0.00733038317412138
1790333692189115000,2.649114990234375,0.010995574295520782,0.05253441259264946,-0.00427605677396059
1790333692205602300,2.665602294921875,0.06291911751031876,0.1264491081237793,-0.00855211354792118
1790333692222135800,2.6821357421875,0.05314527451992035,0.009773843921720982,-0.03176499158143997
1790333692238618400,2.698618408203125,0.02382374368607998,-0.07696902006864548,-0.030543262138962746
1790333692255125500,2.71512548828125,0.015882495790719986,-0.036041051149368286,-0.004886921960860491
1790333692271640000,2.73164013671875,0.036651913076639175,0.09162978827953339,0.021380282938480377
1790333692288136700,2.74813671875,0.051312681287527084,0.1569923609495163,0.021380282938480377
1790333692304646700,2.764646728515625,0.005497787147760391,0.006108652334660292,-0.01771509274840355
1790333692321103400,2.781103271484375,-0.01710422709584236,-0.06536258012056351,-0.05314527451992035
1790333692337607000,2.79760693359375,-0.0012217304902151227,-0.003054326167330146,-0.06352998316287994
1790333692354114600,2.814114501953125,0.04153883829712868,0.11484266817569733,-0.056810468435287476
1790333692370579500,2.830579345703125,0.033597588539123535,0.054367005825042725,-0.06902777403593063
1790333692387111700,2.847111572265625,-0.014049900695681572,-0.039095375686883926,-0.05925392732024193
1790333692403588600,2.863588623046875,-0.02321287989616394,-0.03481931984424591,-0.036041051149368286
1790333692420092400,2.880092529296875,0.019547687843441963,0.10201449692249298,-0.009162978269159794
1790333692436558300,2.896558349609375,0.0507018156349659,0.15271630883216858,-0.003054326167330146
1790333692453010000,2.913010009765625,0.006108652334660292,-0.0006108652451075613,-0.02932153269648552
1790333692469513000,2.929512939453125,-0.013439035043120384,-0.06291911751031876,-0.04459316283464432
1790333692485958000,2.9459580078125,-0.012828170321881771,-0.05803219974040985,-0.04398229718208313
1790333692502461000,2.9624609375,0.01710422709584236,0.10690141469240189,-0.02076941914856434
1790333692518913800,2.978913818359375,-0.01038470957428217,0.1160643994808197,-0.031154127791523933
1790333692535394000,2.99539404296875,-0.048258353024721146,-0.015271631069481373,-0.06291911751031876
1790333692551891500,3.011891357421875,-0.04642575979232788,-0.10812314599752426,-0.08674286305904388
1790333692568361500,3.028361572265625,-0.0012217304902151227,-0.09651670604944229,-0.07452555745840073
1790333692584891000,3.044890869140625,0.021380282938480377,-0.1618792861700058,-0.06108652427792549
1790333692601365200,3.061365234375,-0.02932153269648552,-0.323147714138031,-0.05864306539297104
1790333692617834500,3.07783447265625,-0.04214970022439957,-0.3072652220726013,-0.06841690838336945
1790333692634331600,3.09433154296875,-0.013439035043120384,-0.19364428520202637,-0.1270599663257599
1790333692650790000,3.110789794921875,0.06169738993048668,0.02626720629632473,-0.16065755486488342
1790333692667286000,3.1272861328125,0.054367005825042725,0.08674286305904388,-0.13927727937698364
1790333692683764700,3.1437646484375,0.021991148591041565,0.10323622822761536,-0.056810468435287476
1790333692700215800,3.1602158203125,-0.00427605677396059,0.0708603709936142,0.02015855349600315
1790333692716741600,3.17674169921875,-0.003054326167330146,0.10018189996480942,0.07391469180583954
1790333692733207600,3.19320751953125,0.02321287989616394,0.08429940044879913,0.07941248267889023
1790333692749725400,3.209725341796875,-0.003054326167330146,-0.07452555745840073,0.03420845419168472
1790333692766235000,3.22623486328125,-0.00855211354792118,-0.039706241339445114,0.019547687843441963
1790333692782722000,3.24272216796875,0.005497787147760391,0.060475658625364304,0.015271631069481373
1790333692799215900,3.2592158203125,0.05009094998240471,0.16554448008537292,0.024434609338641167
1790333692815686000,3.275685791015625,0.04398229718208313,0.0354301854968071,0.00733038317412138
1790333692832099600,3.292099609375,0.02382374368607998,-0.07269296050071716,-0.005497787147760391
1790333692848608000,3.30860791015625,0.010995574295520782,-0.09285151958465576,-0.018325956538319588
1790333692865064400,3.325064453125,0.027488935738801956,0.021380282938480377,-0.01771509274840355
1790333692881554700,3.3415546875,0.04642575979232788,0.12278391420841217,-0.02382374368607998
1790333692898018800,3.358018798828125,0.006108652334660292,0.010995574295520782,-0.05742133408784866
1790333692914492200,3.3744921875,-0.010995574295520782,-0.03726277872920036,-0.06108652427792549
1790333692930996500,3.39099658203125,-0.003054326167330146,0.025045474991202354,-0.02871066704392433
1790333692947450000,3.4074501953125,0.02076941914856434,0.14049901068210602,0.007941247895359993
1790333692963992000,3.423991943359375,0.039706241339445114,0.12950342893600464,0.01466076634824276
1790333692980433700,3.44043359375,0.01710422709584236,-0.006719517521560192,-0.001832595793530345
1790333692996934000,3.456933837890625,0.018325956538319588,-0.04337143152952194,-0.007941247895359993
1790333693013440800,3.473440673828125,0.0354301854968071,0.01710422709584236,0.0012217304902151227
1790333693029922300,3.48992236328125,0.06719517707824707,0.10445795953273773,0.006719517521560192
1790333693046447000,3.506447021484375,0.036651913076639175,0.006108652334660292,-0.013439035043120384
1790333693062798600,3.522798583984375,0.0012217304902151227,-0.08796459436416626,-0.014049900695681572
1790333693079169500,3.53916943359375,-0.018325956538319588,-0.08796459436416626,0.0024434609804302454
1790333693095676000,3.555676025390625,0.006719517521560192,0.04092797264456749,0.018325956538319588
1790333693112060700,3.572060791015625,0.03176499158143997,0.09529497474431992,0.009162978269159794
1790333693127599600,3.587599609375,-0.021991148591041565,0.0757472887635231,-0.016493361443281174
1790333693144010000,3.604010009765625,-0.06352998316287994,-0.02321287989616394,-0.06841690838336945
1790333693160487000,3.62048681640625,-0.04153883829712868,-0.14966198801994324,-0.1569923609495163
1790333693176996400,3.636996337890625,-0.004886921960860491,-0.10445795953273773,-0.16798794269561768
1790333693193461500,3.65346142578125,-0.05803219974040985,-0.25961771607398987,-0.12339477986097336
1790333693210008300,3.67000830078125,-0.1264491081237793,-0.34513887763023376,0.00427605677396059
1790333693226476300,3.686476318359375,-0.08735372871160507,-0.30543261766433716,0.09712757170200348
1790333693242941700,3.702941650390625,0.04886921867728233,-0.09346238523721695,0.10201449692249298
1790333693259436500,3.7194365234375,0.17959438264369965,0.19486601650714874,0.05619960278272629
1790333693275957800,3.735957763671875,0.11301007121801376,0.21380282938480377,0.01038470957428217
1790333693292454000,3.752453857421875,0.006108652334660292,0.15454891324043274,-0.00366519158706069
1790333693308945000,3.76894482421875,-0.05864306539297104,0.1258382350206375,-0.009773843921720982
1790333693325459000,3.785458984375,-0.05497787147760391,0.16004669666290283,-0.006108652334660292
1790333693341950000,3.801949951171875,-0.059864792972803116,0.036651913076639175,-0.015882495790719986
1790333693358407000,3.818406982421875,-0.07269296050071716,-0.08429940044879913,-0.00427605677396059
1790333693374886000,3.834885986328125,-0.042760565876960754,-0.054367005825042725,0.030543262138962746
1790333693391365400,3.851365478515625,0.01160643994808197,0.09834930300712585,0.0659734457731247
1790333693407860200,3.867860107421875,0.07635815441608429,0.20830504596233368,0.07208210229873657
1790333693424366600,3.88436669921875,0.07330382615327835,0.13255776464939117,0.036041051149368286
1790333693440828000,3.900827880859375,0.06536258012056351,0.09712757170200348,0.019547687843441963
1790333693457352000,3.91735205078125,0.0659734457731247,0.06780604273080826,0.006108652334660292
1790333693473819100,3.933819091796875,0.09162978827953339,0.16982053220272064,0.021991148591041565
1790333693490310700,3.950310546875,0.09651670604944229,0.2577851414680481,0.03176499158143997
1790333693506776300,3.9667763671875,0.04581489413976669,0.18325957655906677,0.019547687843441963
1790333693523267300,3.983267333984375,0.015271631069481373,0.15515977144241333,0.02015855349600315
1790333693539760000,3.999760009765625,0.030543262138962746,0.13927727937698364,0.036041051149368286
1790333693556224800,4.016224853515625,0.08368854224681854,0.15943582355976105,0.0403171069920063
1790333693572715500,4.032715576171875,0.0659734457731247,0.028099801391363144,0.015271631069481373
1790333693589219600,4.049219482421875,0.027488935738801956,-0.09712757170200348,-0.0006108652451075613
1790333693605655300,4.0656552734375,0.02015855349600315,-0.12889257073402405,-0.012828170321881771
1790333693622160400,4.082160400390625,0.06108652427792549,-0.009162978269159794,-0.01160643994808197
1790333693638635000,4.098635009765625,0.08674286305904388,0.03787364438176155,-0.005497787147760391
1790333693655118600,4.11511865234375,0.0354301854968071,-0.12400564551353455,-0.004886921960860491
1790333693671602400,4.1316025390625,0.02015855349600315,-0.1820378452539444,0.001832595793530345
1790333693688039000,4.148038818359375,0.029932396486401558,-0.10506882518529892,0.018325956538319588
1790333693704510700,4.1645107421875,0.06536258012056351,0.03787364438176155,0.04459316283464432
1790333693720955400,4.180955322265625,0.03726277872920036,-0.036041051149368286,0.02015855349600315
1790333693737406700,4.19740673828125,-0.013439035043120384,-0.11484266817569733,0.02076941914856434
1790333693753934300,4.213934326171875,-0.025656340643763542,-0.08918632566928864,0.022602014243602753
1790333693770417700,4.230417724609375,0.009162978269159794,0.007941247895359993,0.021991148591041565
1790333693786914800,4.246914794921875,0.03176499158143997,0.039706241339445114,0.02015855349600315
1790333693803365000,4.263365234375,-0.007941247895359993,-0.12034045159816742,0.006719517521560192
1790333693819848200,4.27984814453125,-0.01466076634824276,-0.14538592100143433,0.018936822190880775
1790333693836341200,4.29634130859375,-0.00733038317412138,-0.09957103431224823,0.036041051149368286
1790333693852793000,4.31279296875,0.03237585723400116,0.045204028487205505,0.07147123664617538
1790333693869324800,4.32932470703125,0.030543262138962746,-0.03237585723400116,0.07941248267889023
1790333693885808600,4.34580859375,0.01466076634824276,-0.14477506279945374,0.08735372871160507
1790333693902300700,4.36230078125,0.03481931984424591,-0.15515977144241333,0.09651670604944229
1790333693918795800,4.378795654296875,0.10567969083786011,-0.12828169763088226,0.11850785464048386
1790333693935294700,4.395294677734375,0.17959438264369965,-0.19792033731937408,0.13805554807186127
1790333693951788000,4.4117880859375,0.1661553531885147,-0.4141666293144226,0.152105450630188
1790333693968220200,4.42822021484375,0.14966198801994324,-0.5491678714752197,0.18997909128665924
1790333693984680200,4.44468017578125,0.16554448008537292,-0.5497786998748779,0.22296582162380219
1790333694001167400,4.46116748046875,0.2119702398777008,-0.4245513379573822,0.22357667982578278
1790333694017632800,4.4776328125,0.2015855312347412,-0.3732386529445648,0.152105450630188
1790333694034102500,4.4941025390625,0.10445795953273773,-0.3323107063770294,0.00733038317412138
1790333694050617900,4.510617919921875,0.006108652334660292,-0.12950342893600464,-0.18020524084568024
1790333694067084300,4.527084228515625,-0.05742133408784866,0.11178833991289139,-0.33292156457901
1790333694083548200,4.543548095703125,-0.09040805697441101,0.3396410644054413,-0.43188172578811646
1790333694099990300,4.559990234375,-0.1612684279680252,0.3017674386501312,-0.47769662737846375
1790333694116457000,4.57645703125,-0.2382374405860901,0.20891591906547546,-0.455705463886261
1790333694132918500,4.59291845703125,-0.26511552929878235,0.2431243658065796,-0.3854559659957886
1790333694149380600,4.609380615234375,-0.23579397797584534,0.4050036668777466,-0.30543261766433716
1790333694165894700,4.625894775390625,-0.19120082259178162,0.46853363513946533,-0.25045475363731384
1790333694182332000,4.642331787109375,-0.18875735998153687,0.3341432809829712,-0.2217440903186798
1790333694198828000,4.658828125,-0.15515977144241333,0.2076941877603531,-0.16371189057826996
1790333694215282400,4.675282470703125,-0.07513642311096191,0.14416420459747314,-0.0555887371301651
1790333694231766800,4.691766845703125,0.05253441259264946,0.13866640627384186,0.03726277872920036
1790333694248226800,4.708226806640625,0.0959058403968811,-0.06902777403593063,0.03176499158143997
1790333694264705500,4.72470556640625,0.06169738993048668,-0.2840523421764374,0.003054326167330146
1790333694281199600,4.74119970703125,0.03848451003432274,-0.4294382631778717,0.025045474991202354
1790333694297670000,4.757669921875,0.05803219974040985,-0.5204572081565857,0.10201449692249298
1790333694314131000,4.774130859375,0.09896016865968704,-0.5076290369033813,0.16920967400074005
1790333694330596900,4.790596923828125,0.04642575979232788,-0.5552765130996704,0.14477506279945374
1790333694347034600,4.80703466796875,-0.00366519158706069,-0.4398229718208313,0.07391469180583954
1790333694363524900,4.82352490234375,-0.012217304669320583,-0.18020524084568024,-0.022602014243602753
1790333694379983400,4.8399833984375,0.048258353024721146,0.11789698898792267,-0.0959058403968811
1790333694396473600,4.8564736328125,0.06291911751031876,0.1319468915462494,-0.13500121235847473
1790333694412978200,4.872978271484375,0.04948008432984352,0.006719517521560192,-0.10995574295520782
1790333694429469200,4.88946923828125,0.07330382615327835,-0.08246681094169617,-0.031154127791523933
1790333694445985300,4.9059853515625,0.11667526513338089,-0.04948008432984352,0.06169738993048668
1790333694462463000,4.922462890625,0.1417207419872284,0,0.12767083942890167
1790333694478907100,4.9389072265625,0.08674286305904388,-0.1062905490398407,0.14355333149433136
1790333694495432200,4.95543212890625,0.04703662544488907,-0.12828169763088226,0.14416420459747314
1790333694511947500,4.971947509765625,0.02015855349600315,-0.11056660860776901,0.12889257073402405
1790333694528437500,4.9884375,0.014049900695681572,-0.02076941914856434,0.12278391420841217
1790333694544938800,5.004938720703125,-0.014049900695681572,-0.015271631069481373,0.08307767659425735
1790333694561416400,5.02141650390625,-0.06963863968849182,-0.09162978827953339,0.021991148591041565
1790333694577902800,5.03790283203125,-0.08185594528913498,-0.0757472887635231,-0.016493361443281174
1790333694594354200,5.054354248046875,-0.06536258012056351,-0.001832595793530345,-0.028099801391363144
1790333694610886700,5.07088671875,-0.014049900695681572,0.09896016865968704,-0.006719517521560192
1790333694627331300,5.087331298828125,-0.02321287989616394,-0.007941247895359993,-0.00366519158706069
1790333694643837400,5.10383740234375,-0.04214970022439957,-0.1007927656173706,0.00855211354792118
1790333694660333300,5.120333251953125,-0.05375614017248154,-0.14782938361167908,0.018936822190880775
1790333694676797700,5.136797607421875,-0.006108652334660292,0.013439035043120384,0.031154127791523933
1790333694693315600,5.153315673828125,0.07452555745840073,0.2021963894367218,0.02321287989616394
1790333694709747200,5.169747314453125,0.04703662544488907,0.029932396486401558,-0.016493361443281174
1790333694726249200,5.186249267578125,-0.01710422709584236,-0.11728613078594208,-0.006719517521560192
1790333694742730800,5.202730712890625,-0.024434609338641167,-0.02321287989616394,0.033597588539123535
1790333694759231000,5.21923095703125,0.045204028487205505,0.22418753802776337,0.06658431142568588
1790333694775742500,5.235742431640625,0.0659734457731247,0.19608774781227112,0.033597588539123535
1790333694792197600,5.25219775390625,-0.0024434609804302454,-0.08124507963657379,-0.021380282938480377
1790333694808685300,5.268685302734375,-0.04764748737215996,-0.2816088795661926,-0.05803219974040985
1790333694825170200,5.285170166015625,-0.00427605677396059,-0.14538592100143433,-0.059864792972803116
1790333694841617400,5.301617431640625,0.10567969083786011,0.16493362188339233,-0.04337143152952194
1790333694858111000,5.318111083984375,0.09834930300712585,0.07452555745840073,-0.0757472887635231
1790333694874612500,5.334612548828125,0.07941248267889023,-0.10201449692249298,-0.09285151958465576
1790333694891099100,5.35109912109375,0.07330382615327835,-0.19058994948863983,-0.07391469180583954
1790333694907597600,5.36759765625,0.14049901068210602,0.005497787147760391,0.00366519158706069
1790333694924083500,5.38408349609375,0.16798794269561768,0.11972958594560623,0.06780604273080826
1790333694940599300,5.400599365234375,0.09773843735456467,0.001832595793530345,0.08674286305904388
1790333694957060600,5.417060546875,0.021991148591041565,-0.11056660860776901,0.0806342139840126
1790333694973524000,5.43352392578125,0.01038470957428217,0.013439035043120384,0.06658431142568588
1790333694990018600,5.4500185546875,0.06536258012056351,0.21563543379306793,0.039706241339445114
1790333695006505200,5.466505126953125,0.022602014243602753,0.07452555745840073,-0.03420845419168472
1790333695023025700,5.483025634765625,-0.048258353024721146,-0.12767083942890167,-0.09712757170200348
1790333695039487200,5.4994873046875,-0.08918632566928864,-0.20097467303276062,-0.1258382350206375
1790333695055974100,5.51597412109375,-0.021991148591041565,0.03726277872920036,-0.08552113175392151
1790333695072429300,5.53242919921875,-0.01710422709584236,0.04153883829712868,-0.06169738993048668
1790333695088885500,5.548885498046875,-0.07330382615327835,-0.10995574295520782,-0.04337143152952194
1790333695105379800,5.5653798828125,-0.09896016865968704,-0.18448130786418915,-0.012828170321881771
1790333695121887000,5.581886962890625,-0.04886921867728233,-0.0012217304902151227,0.02932153269648552
1790333695138366200,5.5983662109375,0.045204028487205505,0.23151792585849762,0.05375614017248154
1790333695154873600,5.61487353515625,0.007941247895359993,0.0959058403968811,-0.00733038317412138
1790333695171323100,5.6313232421875,-0.06414084881544113,-0.11545353382825851,-0.07024950534105301
1790333695187839500,5.647839599609375,-0.048258353024721146,-0.022602014243602753,-0.13561208546161652
1790333695204331300,5.664331298828125,0.11911872029304504,0.4489859640598297,-0.2376265823841095
1790333695220778000,5.680778076171875,0.1667662113904953,0.6017022728919983,-0.42638394236564636
1790333695237248500,5.69724853515625,0.036041051149368286,0.45631635189056396,-0.5125159621238708
1790333695253749500,5.71374951171875,-0.12034045159816742,0.2773328125476837,-0.4337143301963806
1790333695270217500,5.730217529296875,-0.12950342893600464,0.27611109614372253,-0.2370157092809677
1790333695286694000,5.74669384765625,-0.13011430203914642,0.16432274878025055,-0.0507018156349659
1790333695303188000,5.76318798828125,-0.24678955972194672,-0.17043140530586243,0.048258353024721146
1790333695319717000,5.779717041015625,-0.25534167885780334,-0.16249015927314758,0.06169738993048668
1790333695336191500,5.79619140625,-0.16004669666290283,-0.02321287989616394,-0.00733038317412138
1790333695352717600,5.812717529296875,-0.12767083942890167,-0.028099801391363144,-0.10690141469240189
1790333695369182700,5.8291826171875,-0.0910189226269722,0.07941248267889023,-0.1472185254096985
1790333695385648600,5.845648681640625,-0.014049900695681572,0.16982053220272064,-0.15515977144241333
1790333695402156000,5.862156005859375,-0.024434609338641167,-0.00427605677396059,-0.1368338167667389
1790333695418620200,5.8786201171875,-0.0555887371301651,-0.08185594528913498,-0.07330382615327835
1790333695435167700,5.895167724609375,-0.0659734457731247,-0.12828169763088226,-0.02015855349600315
1790333695451627800,5.911627685546875,-0.10201449692249298,-0.28527405858039856,-0.021380282938480377
1790333695468090600,5.928090576171875,-0.07819075137376785,-0.14538592100143433,-0.027488935738801956
1790333695484586500,5.94458642578125,-0.02871066704392433,-0.0024434609804302454,-0.05497787147760391
1790333695501069800,5.96106982421875,-0.006108652334660292,-0.021380282938480377,-0.11728613078594208
1790333695517591800,5.977591796875,0.054367005825042725,0.05619960278272629,-0.13927727937698364
1790333695534060800,5.994060791015625,0.11423180252313614,0.021380282938480377,-0.13805554807186127
1790333695550576000,6.010576171875,0.10995574295520782,-0.07330382615327835,-0.10262536257505417
1790333695567074600,6.027074462890625,0.09529497474431992,-0.039095375686883926,-0.05803219974040985
1790333695583541500,6.04354150390625,0.06841690838336945,-0.08307767659425735,-0.048258353024721146
1790333695600035800,6.060035888671875,0.033597588539123535,-0.13744467496871948,-0.051312681287527084
1790333695616530700,6.07653076171875,0.033597588539123535,-0.10812314599752426,-0.05925392732024193
1790333695633026800,6.09302685546875,0.04459316283464432,-0.15271630883216858,-0.0659734457731247
1790333695649532000,6.109531982421875,0.07513642311096191,-0.04886921867728233,-0.024434609338641167
1790333695665992000,6.125991943359375,0.08491026610136032,-0.04337143152952194,0.01466076634824276
1790333695682490400,6.142490478515625,0.09896016865968704,-0.029932396486401558,0.054367005825042725
1790333695698929200,6.15892919921875,0.10690141469240189,0.00855211354792118,0.10873401165008545
1790333695715392800,6.175392822265625,0.07941248267889023,-0.007941247895359993,0.15454891324043274
1790333695731828200,6.191828125,0.04459316283464432,0.06352998316287994,0.21380282938480377
1790333695748320300,6.2083203125,-0.016493361443281174,-0.006719517521560192,0.23518311977386475
1790333695764811800,6.224811767578125,-0.045204028487205505,-0.012217304669320583,0.2535090744495392
1790333695781275600,6.241275634765625,-0.039095375686883926,0.00427605677396059,0.2620611786842346
1790333695797768700,6.257768798828125,-0.04581489413976669,-0.07513642311096191,0.2474004179239273
1790333695814237200,6.2742373046875,-0.01771509274840355,-0.0403171069920063,0.2565633952617645
1790333695830701600,6.29070166015625,-0.02321287989616394,-0.08796459436416626,0.23518311977386475
1790333695847198200,6.3071982421875,-0.03298672288656235,-0.13011430203914642,0.182648703455925
1790333695863667500,6.32366748046875,-0.05192354694008827,-0.13805554807186127,0.11362093687057495
1790333695880159200,6.3401591796875,-0.09957103431224823,-0.2174680233001709,0.02932153269648552
1790333695896637200,6.35663720703125,-0.13011430203914642,-0.2620611786842346,-0.04214970022439957
1790333695913103600,6.373103515625,-0.13866640627384186,-0.21441370248794556,-0.09346238523721695
1790333695929598700,6.3895986328125,-0.14966198801994324,-0.16737708449363708,-0.14294247329235077
1790333695946054700,6.4060546875,-0.1973094791173935,-0.23884831368923187,-0.17776179313659668
1790333695962518000,6.42251806640625,-0.19914206862449646,-0.23151792585849762,-0.15821409225463867
1790333695979001000,6.4390009765625,-0.1508837193250656,-0.19425514340400696,-0.09162978827953339
1790333695995465500,6.455465576171875,-0.13805554807186127,-0.2015855312347412,-0.007941247895359993
1790333696011929600,6.4719296875,-0.1466076523065567,-0.1472185254096985,0.08735372871160507
1790333696028394000,6.48839404296875,-0.16859880089759827,-0.14538592100143433,0.12095131725072861
1790333696044859100,6.504859130859375,-0.16920967400074005,-0.13927727937698364,0.10506882518529892
1790333696061272600,6.5212724609375,-0.1459967941045761,-0.08307767659425735,0.07757988572120667
1790333696077714000,6.5377138671875,-0.10567969083786011,-0.03787364438176155,0.03726277872920036
1790333696094217500,6.554217529296875,-0.08124507963657379,-0.07696902006864548,0.003054326167330146
1790333696110640000,6.57064013671875,-0.05253441259264946,-0.09651670604944229,0.00855211354792118
1790333696127137500,6.587137451171875,-0.018936822190880775,-0.06902777403593063,0.039706241339445114
1790333696143643400,6.603643310546875,-0.02871066704392433,-0.12828169763088226,0.05864306539297104
1790333696160109300,6.620109375,-0.029932396486401558,-0.0806342139840126,0.0861319974064827
1790333696176658200,6.636658203125,-0.00427605677396059,0.030543262138962746,0.10873401165008545
1790333696193121800,6.653121826171875,-0.0024434609804302454,0.04337143152952194,0.1264491081237793
1790333696209583900,6.669583984375,-0.00427605677396059,0.07147123664617538,0.14905111491680145
1790333696226111200,6.686111328125,-0.00733038317412138,-0.00427605677396059,0.14477506279945374
1790333696242599700,6.702599609375,-0.01038470957428217,-0.07880161702632904,0.11789698898792267
1790333696259123700,6.719123779296875,0.009162978269159794,-0.06230825558304787,0.07513642311096191
1790333696275608300,6.7356083984375,0.003054326167330146,-0.0659734457731247,0.015271631069481373
1790333696292113700,6.75211376953125,-0.007941247895359993,-0.06536258012056351,-0.02382374368607998
1790333696308624000,6.768623779296875,-0.033597588539123535,-0.10323622822761536,-0.054367005825042725
1790333696325090600,6.785090576171875,-0.01466076634824276,-0.08307767659425735,-0.06719517707824707
1790333696341587200,6.801587158203125,-0.005497787147760391,-0.1362229436635971,-0.07513642311096191
1790333696358022000,6.81802197265625,0.012828170321881771,-0.11850785464048386,-0.0659734457731247
1790333696374484200,6.834484130859375,0.05619960278272629,-0.06963863968849182,-0.05192354694008827
1790333696390945000,6.850945068359375,0.056810468435287476,-0.14782938361167908,-0.05375614017248154
1790333696407407000,6.867406982421875,0.06291911751031876,-0.18325957655906677,-0.045204028487205505
1790333696423872800,6.883872802734375,0.03237585723400116,-0.2541199326515198,-0.05192354694008827
1790333696440359000,6.90035888671875,0.03176499158143997,-0.20586158335208893,-0.02382374368607998
1790333696456823600,6.916823486328125,0.015271631069481373,-0.1258382350206375,0.007941247895359993
1790333696473299000,6.933298828125,0.01771509274840355,0.05009094998240471,0.06536258012056351
1790333696489803500,6.949803466796875,-0.00427605677396059,0.07330382615327835,0.09529497474431992
1790333696506299400,6.96629931640625,-0.01771509274840355,0.10567969083786011,0.09773843735456467
1790333696522767000,6.98276708984375,-0.033597588539123535,0.07269296050071716,0.06536258012056351
1790333696539318300,6.999318359375,-0.08429940044879913,0.021991148591041565,0.019547687843441963
1790333696555798500,7.015798583984375,-0.16004669666290283,-0.08857546001672745,-0.029932396486401558
1790333696572263400,7.032263427734375,-0.2834414839744568,-0.22663100063800812,-0.04642575979232788
1790333696588760800,7.0487607421875,-0.3439171314239502,-0.16004669666290283,-0.015882495790719986
1790333696605205000,7.065205078125,-0.39095374941825867,-0.16493362188339233,0.004886921960860491
1790333696621670400,7.08167041015625,-0.35124751925468445,-0.009773843921720982,0.0507018156349659
1790333696638181000,7.09818115234375,-0.24495697021484375,0.11423180252313614,0.08429940044879913
1790333696654645200,7.114645263671875,-0.1368338167667389,0.15760323405265808,0.08979719132184982
1790333696671161600,7.13116162109375,-0.08857546001672745,-0.0507018156349659,0.04642575979232788
1790333696687632400,7.14763232421875,-0.0708603709936142,-0.1814269721508026,0.004886921960860491
1790333696704104200,7.164104248046875,-0.06108652427792549,-0.22968533635139465,-0.01466076634824276
1790333696720602600,7.1806025390625,-0.10384709388017654,-0.2076941877603531,0.006719517521560192
1790333696737125600,7.197125732421875,-0.11484266817569733,-0.03848451003432274,0.0555887371301651
1790333696753620200,7.2136201171875,-0.09896016865968704,0.0910189226269722,0.05864306539297104
1790333696770124500,7.23012451171875,-0.05803219974040985,0.07513642311096191,0.01160643994808197
1790333696786601700,7.246601806640625,-0.06841690838336945,-0.06902777403593063,-0.04398229718208313
1790333696803088600,7.263088623046875,-0.10690141469240189,-0.1459967941045761,-0.06475171446800232
1790333696819528200,7.279528076171875,-0.18387043476104736,-0.21807889640331268,-0.06536258012056351
1790333696835992000,7.295991943359375,-0.1722639948129654,-0.07635815441608429,-0.033597588539123535
1790333696852462800,7.312462890625,-0.07024950534105301,0.07819075137376785,-0.003054326167330146
1790333696868926200,7.32892626953125,0.019547687843441963,0.10690141469240189,0.014049900695681572
1790333696885435000,7.345434814453125,0.03420845419168472,-0.07147123664617538,0.027488935738801956
1790333696901915100,7.3619150390625,0.00366519158706069,-0.18387043476104736,0.042760565876960754
1790333696918467000,7.378467041015625,-0.007941247895359993,-0.11667526513338089,0.07269296050071716
1790333696934933800,7.394933837890625,-0.03176499158143997,0.001832595793530345,0.07819075137376785
1790333696951408400,7.411408447265625,-0.11056660860776901,0.08918632566928864,0.0555887371301651
1790333696967900200,7.427900146484375,-0.23273965716362,0.051312681287527084,0.007941247895359993
1790333696984391200,7.44439111328125,-0.28466320037841797,0.03237585723400116,-0.06780604273080826
1790333697000917200,7.460917236328125,-0.2474004179239273,0.00427605677396059,-0.15271630883216858
1790333697017389800,7.477389892578125,-0.18448130786418915,0.05375614017248154,-0.19792033731937408
1790333697033876000,7.4938759765625,-0.13072516024112701,0.05803219974040985,-0.2278527319431305
1790333697050368300,7.5103681640625,-0.10018189996480942,-0.009162978269159794,-0.2565633952617645
1790333697066766600,7.5267666015625,-0.07696902006864548,-0.05619960278272629,-0.252287358045578
1790333697083291000,7.543290771484375,-0.14294247329235077,-0.17348572611808777,-0.21135938167572021
1790333697099760000,7.559760009765625,-0.2932153046131134,-0.3646865487098694,-0.15332718193531036
1790333697116224500,7.576224609375,-0.41233405470848083,-0.3072652220726013,-0.07513642311096191
1790333697132750000,7.59275,-0.44104471802711487,-0.11239920556545258,-0.01710422709584236
1790333697149249500,7.60924951171875,-0.47830748558044434,0.03237585723400116,0.01710422709584236
1790333697165780500,7.625780517578125,-0.5424483418464661,0.20586158335208893,0.0403171069920063
1790333697182228500,7.642228515625,-0.5595525503158569,0.46792277693748474,0.07024950534105301
1790333697198709000,7.658708984375,-0.5485569834709167,0.6139195561408997,0.09285151958465576
1790333697215151400,7.6751513671875,-0.5558874011039734,0.6163630485534668,0.14049901068210602
1790333697231625200,7.691625244140625,-0.5112941861152649,0.6829473376274109,0.23396138846874237
1790333697248097300,7.70809716796875,-0.4178318381309509,0.7226535677909851,0.30482175946235657
1790333697264540700,7.724540771484375,-0.31031954288482666,0.5962044596672058,0.3384193480014801
1790333697281046500,7.741046630859375,-0.2376265823841095,0.32009339332580566,0.2834414839744568
1790333697297549300,7.75754931640625,-0.15271630883216858,-0.04153883829712868,0.12217304855585098
1790333697314022400,7.7740224609375,-0.02932153269648552,-0.31459560990333557,-0.09957103431224823
1790333697330527500,7.790527587890625,0.06536258012056351,-0.5174028873443604,-0.2883284091949463
1790333697346974000,7.806973876953125,0.17409659922122955,-0.4129449129104614,-0.38606682419776917
1790333697363447800,7.82344775390625,0.26145032048225403,-0.24007004499435425,-0.41722095012664795
1790333697379963100,7.839963134765625,0.28527405858039856,-0.04948008432984352,-0.40194934606552124
1790333697396406000,7.856406005859375,0.23945917189121246,-0.009773843921720982,-0.35246923565864563
1790333697412937200,7.872937255859375,0.17409659922122955,0.07391469180583954,-0.2638937830924988
1790333697429413600,7.88941357421875,0.11972958594560623,0.1007927656173706,-0.19364428520202637
1790333697445889800,7.905889892578125,0.04948008432984352,0.07757988572120667,-0.17531833052635193
1790333697462394400,7.922394287109375,-0.04337143152952194,0.04214970022439957,-0.2125810980796814
1790333697478919200,7.938919189453125,-0.13072516024112701,0.12400564551353455,-0.2632829248905182
1790333697495418400,7.95541845703125,-0.15393804013729095,0.2638937830924988,-0.31154128909111023
1790333697511873800,7.971873779296875,-0.1459967941045761,0.27550023794174194,-0.375071257352829
1790333697528375300,7.988375244140625,-0.09712757170200348,0.17409659922122955,-0.39645153284072876
1790333697544884200,8.00488427734375,-0.02687807008624077,-0.0806342139840126,-0.37690386176109314
1790333697561372400,8.021372314453124,0.07757988572120667,-0.15943582355976105,-0.294437050819397
1790333697577865500,8.037865478515625,0.1661553531885147,-0.15271630883216858,-0.1966986060142517
1790333697594361600,8.054361572265625,0.19547687470912933,-0.1569923609495163,-0.10567969083786011
1790333697610830800,8.070830810546875,0.18570303916931152,-0.2064724564552307,-0.048258353024721146
1790333697627359200,8.087359130859374,0.1973094791173935,-0.17776179313659668,-0.012828170321881771
1790333697643856600,8.103856689453124,0.28955012559890747,0.07757988572120667,0.02932153269648552
1790333697660373500,8.12037353515625,0.33658674359321594,0.21868975460529327,0.04337143152952194
1790333697676846300,8.136846435546875,0.313373863697052,0.21930062770843506,-0.0006108652451075613
1790333697693310500,8.153310546875,0.24862214922904968,0.2174680233001709,-0.054367005825042725
1790333697709807400,8.169807373046876,0.23273965716362,0.2981022298336029,-0.12522737681865692
1790333697726276400,8.1862763671875,0.23884831368923187,0.3854559659957886,-0.251676470041275
1790333697742775600,8.202775634765626,0.1411098688840866,0.37201693654060364,-0.4440990388393402
1790333697759259600,8.219259765625,-0.11972958594560623,0.4282165467739105,-0.6884451508522034
1790333697775757300,8.23575732421875,-0.42271876335144043,0.5687155723571777,-0.8454375267028809
1790333697792224300,8.252224365234374,-0.6505714654922485,0.8417723178863525,-0.8790351152420044
1790333697808672500,8.268672607421875,-0.8772025108337402,1.0995573997497559,-0.9162978529930115
1790333697825199000,8.28519921875,-1.1087204217910767,1.4862351417541504,-1.056796908378601
1790333697841671400,8.30167138671875,-1.425148606300354,1.7916678190231323,-1.2712105512619019
1790333697858174500,8.318174560546876,-1.5613715648651123,1.9181169271469116,-1.3927727937698364
1790333697874660600,8.33466064453125,-1.4844025373458862,1.9046778678894043,-1.397048830986023
1790333697891100400,8.351100341796876,-1.3298536539077759,1.6022995710372925,-1.3817771673202515
1790333697907631900,8.3676318359375,-1.2455542087554932,0.7171558141708374,-1.4911220073699951
1790333697924073500,8.384073486328125,-1.244943380355835,-0.20586158335208893,-1.5632041692733765
1790333697940546600,8.400546630859376,-1.2180652618408203,-0.7574729323387146,-1.480737328529358
1790333697957010000,8.417010009765624,-1.014647126197815,-0.9804387092590332,-1.2370021343231201
1790333697973476000,8.43347607421875,-0.7757988572120667,-1.0268645286560059,-0.9456194043159485
1790333697989973200,8.44997314453125,-0.5436700582504272,-1.1154398918151855,-0.6517932415008545
1790333698006445600,8.466445556640625,-0.3384193480014801,-1.2498302459716797,-0.4398229718208313
1790333698022942200,8.482942138671875,-0.1508837193250656,-1.2932016849517822,-0.31642818450927734
1790333698039415600,8.49941552734375,-0.018325956538319588,-1.2394455671310425,-0.23884831368923187
1790333698055885000,8.515885009765626,0.06414084881544113,-1.378722906112671,-0.19058994948863983
1790333698072454400,8.532454345703124,0.08368854224681854,-1.540602207183838,-0.1417207419872284
1790333698088897500,8.5488974609375,-0.05253441259264946,-1.4330898523330688,-0.060475658625364304
1790333698105365000,8.565364990234375,-0.24495697021484375,-1.2040153741836548,0.17776179313659668
1790333698121874000,8.5818740234375,-0.2919935882091522,-0.9755517840385437,0.45753806829452515
1790333698138779100,8.598779052734375,-0.23151792585849762,-0.7330383062362671,0.6236934065818787
1790333698154810600,8.614810546875,-0.0403171069920063,-0.646295428276062,0.5955936312675476
1790333698171265500,8.631265625,0.17592918872833252,-0.5455026626586914,0.36102136969566345
1790333698187742200,8.6477421875,0.2620611786842346,-0.30604347586631775,0.02871066704392433
1790333698204240000,8.664239990234375,0.3023782968521118,-0.04886921867728233,-0.2577851414680481
1790333698220742700,8.68074267578125,0.3799581825733185,0.3286454975605011,-0.4996877610683441
1790333698237241300,8.697241455078125,0.6310238242149353,0.7116580009460449,-0.6224716901779175
1790333698253692700,8.713692626953126,1.1520918607711792,0.940121591091156,-0.6389650702476501
1790333698270220500,8.730220458984375,1.700037956237793,0.6236934065818787,-0.6206390857696533
1790333698286717700,8.7467177734375,1.965153455734253,0.14233160018920898,-0.4899139404296875
1790333698303179000,8.763178955078125,2.1197023391723633,0.025045474991202354,-0.25595253705978394
1790333698319680800,8.7796806640625,2.1728477478027344,0.059864792972803116,-0.00855211354792118
1790333698336135000,8.796135009765624,2.161241292953491,0.14905111491680145,0.17531833052635193
1790333698352583400,8.81258349609375,2.216219186782837,0.054367005825042725,0.2981022298336029
1790333698369064400,8.829064453125,2.313957452774048,-0.12217304855585098,0.29993483424186707
1790333698385517600,8.845517578125,2.328618288040161,-0.16798794269561768,0.27000242471694946
1790333698402051800,8.8620517578125,2.1923954486846924,-0.1258382350206375,0.2119702398777008
1790333698418505500,8.87850537109375,2.007303237915039,-0.1264491081237793,0.15027284622192383
1790333698434966000,8.894966064453126,1.8594738245010376,-0.15760323405265808,0.08124507963657379
1790333698451442000,8.91144189453125,1.8350391387939453,-0.17104226350784302,0.031154127791523933
1790333698467918600,8.927918701171874,1.8973474502563477,-0.1612684279680252,-0.04581489413976669
1790333698484421600,8.944421630859376,1.9688186645507812,-0.14844025671482086,-0.11423180252313614
1790333698500879600,8.960879638671875,1.9999728202819824,-0.21991148591041565,-0.1667662113904953
1790333698517383700,8.9773837890625,2.0091357231140137,-0.18570303916931152,-0.1368338167667389
1790333698533864700,8.99386474609375,1.9578231573104858,0.08002334833145142,-0.027488935738801956
1790333698550324000,9.010323974609374,1.8503108024597168,0.37751471996307373,0.03787364438176155
1790333698566825700,9.02682568359375,1.7482963800430298,0.5094616413116455,0.01038470957428217
1790333698583270700,9.043270751953125,1.643227458000183,0.47280970215797424,-0.09773843735456467
1790333698599741000,9.059740966796875,1.49906325340271,0.2785545587539673,-0.22663100063800812
1790333698616224800,9.076224853515624,1.3170254230499268,0.18020524084568024,-0.27488934993743896
1790333698632670700,9.092670654296874,1.1087204217910767,0.2626720666885376,-0.2480112910270691
1790333698649169000,9.1091689453125,0.9187413454055786,0.3579670190811157,-0.19608774781227112
1790333698665614300,9.1256142578125,0.7458664774894714,0.4031710624694824,-0.1368338167667389
1790333698682100700,9.142100830078125,0.5907067060470581,0.37751471996307373,-0.11056660860776901
1790333698698610400,9.1586103515625,0.43188172578811646,0.2638937830924988,-0.08124507963657379
1790333698715080000,9.175079833984375,0.26145032048225403,0.20952677726745605,-0.016493361443281174
1790333698731578000,9.191578125,0.14905111491680145,0.1362229436635971,0.11484266817569733
1790333698748071400,9.208071533203125,0.16982053220272064,0.0555887371301651,0.2987131178379059
1790333698764598300,9.224598388671875,0.26145032048225403,0.0403171069920063,0.5112941861152649
1790333698781038000,9.2410380859375,0.25045475363731384,0.08307767659425735,0.7006624341011047
1790333698797491200,9.2574912109375,0.13439035415649414,0.1508837193250656,0.749531626701355
1790333698813960000,9.2739599609375,-0.00855211354792118,0.17531833052635193,0.7171558141708374
1790333698830404600,9.290404541015626,-0.0959058403968811,0.2028072625398636,0.645684540271759
1790333698846872000,9.3068720703125,-0.14355333149433136,0.1319468915462494,0.5442809462547302
1790333698863351300,9.323351318359375,-0.1875356286764145,0.5766568183898926,0.2076941877603531
1790333698879789600,9.33978955078125,-0.25473082065582275,0.33658674359321594,-0.20036379992961884
1790333698896298800,9.356298828125,-0.22602014243602753,0.7012733221054077,-0.503963828086853
1790333698912747800,9.372747802734375,-0.251676470041275,0.3646865487098694,-0.6963863968849182
1790333698929224400,9.389224365234375,-0.33475416898727417,0.23518311977386475,-0.8142833709716797
1790333698945721300,9.405721435546875,-0.41599923372268677,0.1563815027475357,-0.759916365146637
1790333698962187500,9.4221875,-0.49846604466438293,0.30115658044815063,-0.5265658497810364
1790333698978681900,9.438681884765625,-0.43676865100860596,0.38728857040405273,-0.2681698501110077
1790333698995134200,9.45513427734375,-0.25473082065582275,0.38240164518356323,-0.06536258012056351
1790333699011626000,9.4716259765625,0.054367005825042725,0.2932153046131134,0.11789698898792267
1790333699028097000,9.488096923828126,0.3072652220726013,0.24495697021484375,0.22968533635139465
1790333699044551700,9.5045517578125,0.47708576917648315,0.1313360333442688,0.3439171314239502
1790333699061063700,9.521063720703125,0.14477506279945374,0.23090706765651703,0.12950342893600464
1790333699077432300,9.537432373046874,0.28588494658470154,0.46242499351501465,0.24373523890972137
1790333699093872600,9.55387255859375,0.5009095072746277,0.3646865487098694,0.3017674386501312
1790333699110352600,9.5703525390625,0.26511552929878235,0.40256020426750183,0.10995574295520782
1790333699126801000,9.58680078125,0.10018189996480942,0.5161811113357544,-0.07269296050071716
1790333699143328000,9.603327880859375,0.17531833052635193,0.46853363513946533,-0.12828169763088226
1790333699159771400,9.619771484375,0.19975294172763824,0.29993483424186707,-0.2370157092809677
1790333699176223700,9.6362236328125,0.033597588539123535,0.182648703455925,-0.4813618063926697
1790333699192694300,9.6526943359375,-0.07208210229873657,0.10506882518529892,-0.7037167549133301
1790333699209164300,9.669164306640624,-0.0354301854968071,-0.003054326167330146,-0.8906415104866028
1790333699225629200,9.685629150390625,0.02932153269648552,-0.02871066704392433,-1.0604621171951294
1790333699242081500,9.70208154296875,0.051312681287527084,0.18325957655906677,-1.1313223838806152
1790333699258574300,9.71857421875,0.15760323405265808,0.6041457056999207,-0.9737191796302795
1790333699275041000,9.735041015625,0.28099802136421204,0.637132465839386,-0.6304129362106323
1790333699291518000,9.75151806640625,0.42638394236564636,0.6041457056999207,-0.17470745742321014
1790333699308047000,9.768047119140626,0.4911356568336487,0.5326744914054871,0.22296582162380219
1790333699324516400,9.784516357421875,0.40194934606552124,0.25106561183929443,0.39767327904701233
1790333699340978200,9.800978271484375,0.28527405858039856,-0.015882495790719986,0.39095374941825867
1790333699357457200,9.81745703125,0.152105450630188,-0.303600013256073,0.2431243658065796
1790333699373892000,9.83389208984375,-0.2571742534637451,-0.8442157506942749,-0.04337143152952194
1790333699390414800,9.850414794921875,-0.6768386960029602,-1.1331549882888794,-0.3237585723400116
1790333699406852900,9.866852783203125,-0.978606104850769,-0.9761626720428467,-0.5082398653030396
1790333699423317500,9.8833173828125,-1.0879509449005127,-0.5571091175079346,-0.6151412725448608
1790333699439784000,9.899783935546875,-0.9718865752220154,-0.2076941877603531,-0.7538077235221863
1790333699456247000,9.9162470703125,-0.7721336483955383,-0.09040805697441101,-0.9963212013244629
1790333699472765700,9.932765625,-0.5913175344467163,-0.001832595793530345,-1.1142182350158691
1790333699489244400,9.949244384765626,-0.323147714138031,-0.0910189226269722,-1.2064588069915771
1790333699505734100,9.965734130859374,-0.00855211354792118,-0.13561208546161652,-1.2932016849517822
1790333699522196200,9.9821962890625,0.1765400618314743,0.2583959996700287,-1.1032226085662842
1790333699538674000,9.998673828125,0.21930062770843506,0.4550946056842804,-0.7214318513870239
1790333699555163100,10.0151630859375,0.24556782841682434,-0.1612684279680252,-0.14966198801994324
1790333699571665000,10.031664794921875,0.21624629199504852,-0.6511823534965515,0.694553792476654
1790333699588129300,10.04812939453125,0.14844025671482086,-0.7202101349830627,1.4300355911254883
1790333699604592400,10.06459228515625,0.054367005825042725,-0.8784242272377014,1.7745635509490967
1790333699621088500,10.081088623046876,-0.006719517521560192,-1.3365731239318848,1.817324161529541
1790333699637583000,10.0975830078125,-0.03787364438176155,-1.29381263256073,1.6603317260742188
1790333699654017500,10.114017578125,0.08857546001672745,-0.8161159753799438,1.3738359212875366
1790333699670486500,10.130486572265625,0.31520646810531616,-0.578489363193512,0.902247965335846
1790333699686971400,10.146971435546876,0.38728857040405273,-0.8827002644538879,0.42088615894317627
1790333699703467000,10.163467041015625,0.3139847218990326,-1.89979088306427,-0.2217440903186798
1790333699719960800,10.1799609375,0.44104471802711487,-2.908329486846924,-1.102611780166626
1790333699736402700,10.196402587890624,0.5412266254425049,-1.8466455936431885,-1.2767083644866943
1790333699752923400,10.21292333984375,0.6444628238677979,-0.96883225440979,-1.1380419731140137
1790333699769416000,10.229416015625,0.645684540271759,-0.33292156457901,-0.9822713136672974
1790333699785885000,10.245885009765624,0.3885102868080139,0.28527405858039856,-1.034194827079773
1790333699802382300,10.26238232421875,0.25595253705978394,0.41111230850219727,-1.2858713865280151
1790333699818820000,10.278820068359375,0.24556782841682434,0.5461135506629944,-1.4141530990600586
1790333699835285200,10.29528515625,0.5626068711280823,0.9321803450584412,-1.3145819902420044
1790333699851791000,10.311791015625,0.8002334833145142,1.3952162265777588,-1.3432927131652832
1790333699868230400,10.32823046875,0.8319984674453735,1.788002610206604,-1.2699888944625854
1790333699884627200,10.344627197265625,0.4740314185619354,2.370157241821289,-0.8387179970741272
1790333699901092600,10.361092529296876,0.03420845419168472,2.2656991481781006,-0.413555771112442
1790333699917539600,10.37753955078125,-0.313373863697052,1.892460584640503,-0.10262536257505417
1790333699934024700,10.394024658203126,-0.38179078698158264,1.4489723443984985,0.2638937830924988
1790333699950522600,10.410522705078124,-0.22602014243602753,1.0989465713500977,0.6004805564880371
1790333699967009500,10.427009521484376,0.14966198801994324,1.0824532508850098,0.8057312369346619
1790333699983488300,10.44348828125,0.5253441333770752,1.23394775390625,0.750142514705658
1790333699999952400,10.459952392578124,0.6811147332191467,0.36224308609962463,0.06169738993048668
1790333700016417300,10.476417236328125,0.6701191663742065,-0.6921103000640869,-0.740368664264679
1790333700032867000,10.4928671875,0.1362229436635971,-0.4593706727027893,-0.8906415104866028
1790333700049381000,10.509381103515626,-0.1411098688840866,0.2480112910270691,-0.6334672570228577
1790333700065763300,10.525763427734375,-0.2590068578720093,-0.0555887371301651,-0.5870414972305298
1790333700082259500,10.542259521484375,-0.5455026626586914,0.29077184200286865,-0.4105014503002167
1790333700098738000,10.558738037109375,-0.48685958981513977,0.2718350291252136,-0.15332718193531036
1790333700115213600,10.575213623046874,-0.4086688458919525,0.2632829248905182,0.05253441259264946
1790333700131773700,10.591773681640625,-0.39767327904701233,0.27611109614372253,0.1973094791173935
1790333700148212200,10.608212158203125,-0.4740314185619354,0.5363397002220154,0.252287358045578
1790333700164680400,10.624680419921875,-0.3689626157283783,0.4306600093841553,0.28038713335990906
1790333700181151700,10.64115185546875,-0.018936822190880775,0.5852088928222656,0.5076290369033813
1790333700197621500,10.65762158203125,0.5473352670669556,0.6688974499702454,0.6860016584396362
1790333700214143700,10.674143798828124,1.0280861854553223,0.4966334402561188,0.5534439086914062
1790333700230594000,10.690593994140626,1.2541064023971558,0.32131510972976685,0.3396410644054413
1790333700247093200,10.70709326171875,1.3585642576217651,0.35613444447517395,0.2834414839744568
1790333700263564500,10.723564453125,1.445918083190918,0.6640105247497559,0.5222898125648499
1790333700280017200,10.74001708984375,1.425148606300354,0.6798930168151855,0.7855727076530457
1790333700296538600,10.75653857421875,1.1246029138565063,0.13011430203914642,0.7574729323387146
1790333700312984300,10.772984375,0.3500257730484009,-0.8436049222946167,0.18936823308467865
1790333700329455600,10.78945556640625,-0.0659734457731247,-0.8527678847312927,-0.01771509274840355
1790333700345930500,10.805930419921875,0.054367005825042725,-0.3445279896259308,-0.05864306539297104
1790333700362431000,10.822430908203126,0.03726277872920036,0.12767083942890167,-0.01038470957428217
1790333700378957600,10.83895751953125,-0.2669481039047241,0.7831292152404785,-0.08368854224681854
1790333700395400200,10.855400146484374,-0.30604347586631775,0.9437867999076843,-0.22540926933288574
1790333700411880400,10.87188037109375,0.15943582355976105,0.8057312369346619,-0.38240164518356323
1790333700428347400,10.888347412109376,0.37568211555480957,0.5283984541893005,-0.44715335965156555
1790333700444817200,10.904817138671875,0.15821409225463867,0.24007004499435425,-0.17409659922122955
1790333700461313300,10.921313232421875,0.05009094998240471,0.05009094998240471,0.12034045159816742
1790333700477791500,10.93779150390625,-0.242513507604599,-0.05009094998240471,0.19425514340400696
1790333700494312200,10.954312255859374,-0.3225368559360504,0.08185594528913498,0.001832595793530345
1790333700510804200,10.97080419921875,-0.22602014243602753,0.44776421785354614,-0.45692721009254456
1790333700527275300,10.987275146484375,-0.11972958594560623,0.6707300543785095,-0.8796459436416626
1790333700543769900,11.003769775390625,-0.12095131725072861,0.7586946487426758,-1.1740829944610596
1790333700560208400,11.02020849609375,-0.09407325088977814,0.8894197940826416,-1.1117748022079468
1790333700576670700,11.036670654296875,0.05314527451992035,0.911410927772522,-0.9224064946174622
1790333700593172700,11.0531728515625,0.13072516024112701,0.6872233748435974,-0.7012733221054077
1790333700609640400,11.069640380859376,0.23090706765651703,0.23945917189121246,-0.3927863538265228
1790333700626162400,11.086162353515626,0.5082398653030396,-0.5338962078094482,-0.2021963894367218
1790333700642615800,11.10261572265625,0.598647952079773,-1.1533136367797852,-0.21624629199504852
1790333700659118800,11.119118896484375,0.7195992469787598,-1.321912407875061,-0.5241223573684692
1790333700675606000,11.13560595703125,0.8851437568664551,-1.3151928186416626,-0.9944885969161987
1790333700692070700,11.152070556640625,0.9462302923202515,-1.0555751323699951,-1.3536773920059204
1790333700708552400,11.168552490234376,0.8680394887924194,-0.9975429177284241,-1.6731599569320679
1790333700725032400,11.185032470703124,0.7837401032447815,-0.9480628371238708,-2.0421226024627686
1790333700741527800,11.20152783203125,1.056796908378601,-0.7874053120613098,-2.291966438293457
1790333700758048000,11.218048095703125,1.6811012029647827,-0.8851437568664551,-2.344500780105591
1790333700774521000,11.23452099609375,1.9016234874725342,-1.081842303276062,-2.2321016788482666
1790333700791000000,11.251,1.7776178121566772,-1.035416603088379,-1.9187277555465698
1790333700807469600,11.267469482421875,1.8380935192108154,-1.1539244651794434,-1.852143406867981
1790333700823906800,11.28390673828125,1.7800613641738892,-1.728137731552124,-1.7654005289077759
1790333700840385300,11.30038525390625,1.5925257205963135,-1.7024813890457153,-1.3713924884796143
1790333700856854300,11.316854248046875,1.4508049488067627,-0.817948579788208,-1.2296717166900635
1790333700873398300,11.333398193359375,1.4202617406845093,-0.12400564551353455,-1.7256942987442017
1790333700889851000,11.349850830078125,1.6041321754455566,-0.39767327904701233,-2.348165988922119
1790333700906317300,11.3663173828125,1.7550158500671387,0.09957103431224823,-2.289522886276245
1790333700922790700,11.382790771484375,1.3445143699645996,0.20891591906547546,-2.260812282562256
1790333700939274800,11.399274658203124,0.6059783101081848,-0.29626965522766113,-2.2852468490600586
1790333700955799300,11.41579931640625,0.01160643994808197,-0.7293730974197388,-1.9016234874725342
1790333700972259300,11.43225927734375,-0.34086281061172485,-0.7489207983016968,-1.3683381080627441
1790333700988791600,11.44879150390625,-0.618195652961731,-0.00366519158706069,-0.8655960559844971
1790333701005270500,11.4652705078125,-0.9456194043159485,1.0458012819290161,-0.48747047781944275
1790333701021727200,11.481727294921875,-1.207069754600525,1.7287486791610718,-0.3805690407752991
1790333701038250200,11.498250244140625,-1.2748757600784302,1.7629570960998535,-0.5302310585975647
1790333701054705200,11.514705078125,-1.2376129627227783,1.7739527225494385,-0.8222246170043945
1790333701071113700,11.53111376953125,-1.3799445629119873,1.6725490093231201,-1.42637038230896
1790333701087512800,11.547512939453124,-1.6310101747512817,1.8069393634796143,-2.0225749015808105
1790333701103988200,11.56398828125,-1.8118263483047485,2.233323335647583,-2.400700330734253
1790333701120484400,11.580484375,-1.9853121042251587,2.6847527027130127,-2.677422285079956
1790333701136908500,11.596908447265625,-2.1313087940216064,2.8851165771484375,-2.4776694774627686
1790333701153365200,11.613365234375,-0.817337691783905,2.8295278549194336,-1.881464958190918
1790333701169705500,11.62970556640625,-0.5473352670669556,1.6774359941482544,-1.2651019096374512
1790333701186177000,11.646177001953125,-1.3280210494995117,1.348179578781128,-0.13744467496871948
1790333701202642400,11.662642333984374,-1.4098769426345825,1.094059705734253,0.8124507665634155
1790333701219088100,11.679088134765625,-1.3194689750671387,0.7574729323387146,1.965153455734253
1790333701235561500,11.6955615234375,-1.5650367736816406,-0.26450464129447937,2.7128524780273438
1790333701252002800,11.7120029296875,-1.6377297639846802,-1.1917980909347534,2.964529037475586
1790333701268446200,11.7284462890625,-1.7482963800430298,-1.567480206489563,2.4715607166290283
1790333701284902000,11.74490185546875,-1.1301007270812988,-0.8356636762619019,0.485027015209198
1790333701301374000,11.7613740234375,-1.216843605041504,-0.3628539443016052,-1.217454433441162
1790333701317833200,11.777833251953124,-1.037249207496643,0.31031954288482666,-2.166128158569336
1790333701334275600,11.794275634765626,-0.930347740650177,0.5119050741195679,-2.549140691757202
1790333701350715400,11.81071533203125,-0.9920451641082764,0.5815436840057373,-2.152689218521118
1790333701367178200,11.82717822265625,-1.0366383790969849,0.32986724376678467,-1.2431107759475708
1790333701383616000,11.843615966796875,-1.1746938228607178,0.006719517521560192,-0.1869247704744339
1790333701400069000,11.860069091796875,0.14477506279945374,0.5754350423812866,-1.4819591045379639
1790333701416512000,11.876511962890625,0.036651913076639175,0.8637634515762329,-0.8252789378166199
1790333701432985300,11.8929853515625,-0.019547687843441963,0.06963863968849182,-0.750142514705658
1790333701449426200,11.90942626953125,-0.10873401165008545,-0.15943582355976105,-0.949895441532135
1790333701465864200,11.9258642578125,-0.021380282938480377,-0.24862214922904968,-1.4367550611495972
1790333701482328000,11.942328125,0.07147123664617538,-0.2064724564552307,-1.758681058883667
1790333701498767000,11.95876708984375,0.10201449692249298,-0.13011430203914642,-2.0647244453430176
1790333701515208200,11.975208251953125,-0.21013765037059784,1.3726142644882202,-1.588249683380127
1790333701531665700,11.991665771484374,0.30115658044815063,0.8735373020172119,-1.6841554641723633
1790333701548096300,12.00809619140625,0.14844025671482086,0.3530801236629486,-1.0867292881011963
1790333701564503800,12.02450390625,0.18570303916931152,-0.21380282938480377,-1.2424999475479126
1790333701580947200,12.040947265625,-0.00427605677396059,-0.07819075137376785,-1.0109820365905762
1790333701597394200,12.057394287109375,-0.1918116807937622,0.09162978827953339,-0.7324274182319641
1790333701613853400,12.073853515625,-0.6230825781822205,0.8912523984909058,-0.11850785464048386
1790333701630297900,12.0902978515625,-0.6426302194595337,1.7635679244995117,0.4746423065662384
1790333701646743800,12.106743896484375,-0.37751471996307373,2.5980098247528076,1.0891727209091187
1790333701663189200,12.123189208984375,-0.7898487448692322,-2.5021040439605713,-3.6053266525268555
1790333701679639000,12.13963916015625,-1.1582005023956299,-0.20586158335208893,-2.280970811843872
1790333701696091400,12.15609130859375,0.5241223573684692,-1.7507398128509521,-3.397021532058716
1790333701712541400,12.17254150390625,1.728137731552124,-1.425148606300354,-3.5949418544769287
1790333701729020700,12.189020751953125,1.5992451906204224,-0.9199630618095398,-0.9584475755691528
1790333701745468700,12.20546875,1.4752395153045654,0.626747727394104,-0.3677408695220947
1790333701761916400,12.22191650390625,0.7000515460968018,0.1716531366109848,-0.2767219543457031
1790333701778361300,12.238361328125,0.6872233748435974,0.4447098970413208,0.38728857040405273
1790333701794805500,12.254805419921874,0.7971791625022888,0.8796459436416626,0.6725626587867737
1790333701811133000,12.2711328125,1.7519614696502686,0.6200281977653503,-0.08124507963657379
1790333701827579600,12.28757958984375,1.680490255355835,1.103833556175232,0.5687155723571777
1790333701844025300,12.304025390625,1.8881844282150269,0.6615670323371887,0.46547931432724
1790333701860471800,12.320471923828125,1.3200798034667969,2.1649065017700195,-0.6695083379745483
1790333701876918800,12.336918701171875,0.17348572611808777,2.4776694774627686,-0.9388998746871948
1790333701892358100,12.352358154296875,0.9975429177284241,1.9285016059875488,-0.39584067463874817
1790333701908533800,12.36853369140625,-0.06108652427792549,0.750142514705658,-0.34758231043815613
1790333701924000500,12.38400048828125,-0.17959438264369965,-0.22052235901355743,-0.5864306092262268
1790333701940451800,12.400451904296874,-0.5216789245605469,-0.6389650702476501,-0.27122417092323303
1790333701956904400,12.416904541015626,-0.6249151229858398,-1.423926830291748,-0.23335053026676178
1790333701973389600,12.4333896484375,-0.7556403279304504,-1.4831807613372803,-0.32620203495025635
1790333701989840600,12.449840576171875,-0.7141014933586121,-1.216843605041504,-0.3274237811565399
1790333702006295000,12.466294921875,-0.8301658630371094,-0.5479460954666138,-0.4288274049758911
1790333702022746400,12.482746337890624,-0.7189884185791016,-0.14966198801994324,-0.4080579876899719
1790333702039202000,12.4992021484375,-0.8356636762619019,-0.2632829248905182,-0.36163222789764404
1790333702055687200,12.515687255859374,-1.0793988704681396,-0.46670106053352356,-0.3500257730484009
1790333702072137700,12.5321376953125,-1.0580185651779175,-0.5913175344467163,-0.4355469346046448
1790333702088627700,12.548627685546874,-1.1355985403060913,-0.8814785480499268,-0.4355469346046448
1790333702105109800,12.56510986328125,-1.1056660413742065,-0.7153232097625732,-0.6334672570228577
1790333702121557500,12.5815576171875,-1.0800096988677979,-0.7141014933586121,-0.8662069439888
1790333702138003200,12.598003173828126,-1.0506882667541504,-0.6151412725448608,-1.1594222784042358
1790333702154450400,12.614450439453124,-1.1276572942733765,-0.7574729323387146,-1.4330898523330688
1790333702170925300,12.63092529296875,-0.988990843296051,-0.31642818450927734,-1.4953981637954712
1790333702187369700,12.64736962890625,-0.24007004499435425,0.5668829679489136,-0.06841690838336945
1790333702203816000,12.66381591796875,-0.025656340643763542,-0.08246681094169617,-0.19608774781227112
1790333702220288000,12.6802880859375,-0.00366519158706069,-0.03848451003432274,0.01466076634824276
1790333702236759300,12.69675927734375,-0.028099801391363144,0.036651913076639175,0.029932396486401558
1790333702253236000,12.713236083984375,-0.001832595793530345,-0.02871066704392433,0.030543262138962746
1790333702269732600,12.729732666015625,-0.001832595793530345,-0.04581489413976669,0.015271631069481373
1790333702286189000,12.74618896484375,-0.02382374368607998,0.009773843921720982,0.006719517521560192
1790333702302683600,12.76268359375,0.013439035043120384,-0.05253441259264946,0.04337143152952194
1790333702319186700,12.779186767578125,-0.00733038317412138,-0.016493361443281174,0.02015855349600315
1790333702335663000,12.7956630859375,-0.05375614017248154,0.015271631069481373,-0.0006108652451075613
1790333702352159500,12.812159423828126,-0.02076941914856434,0.018936822190880775,-0.0024434609804302454
1790333702368608500,12.8286083984375,0.02321287989616394,-0.0861319974064827,0.0861319974064827
1790333702385053000,12.845052978515625,-0.35246923565864563,-0.06108652427792549,0.45204028487205505
1790333702401494000,12.861493896484374,0.2535090744495392,0.6194173693656921,0.39095374941825867
1790333702417965800,12.8779658203125,0.6585127115249634,0.2791654169559479,1.3096951246261597
1790333702434407400,12.894407470703126,0.9950994849205017,0.5027421116828918,2.045787811279297
1790333702450850000,12.91085009765625,1.5210545063018799,0.817337691783905,2.155132532119751
1790333702467329000,12.9273291015625,1.511891484260559,0.7654141783714294,2.524095296859741
1790333702483777800,12.94377783203125,1.9834794998168945,-0.4660901725292206,1.9370536804199219
1790333702500226000,12.96022607421875,1.8448129892349243,-0.5180137157440186,1.3213015794754028
1790333702516674600,12.976674560546876,1.8509217500686646,1.9352210760116577,2.132530689239502
1790333702533129500,12.99312939453125,1.777006983757019,1.8387043476104736,2.546086311340332
1790333702549579800,13.009579833984375,0.8436049222946167,-6.2937445640563965,-1.6939293146133423
1790333702566030300,13.0260302734375,0.5919284224510193,-1.0348057746887207,2.428800106048584
1790333702582481000,13.04248095703125,-0.19792033731937408,-0.7434229850769043,0.7837401032447815
1790333702598959400,13.05895947265625,-0.13927727937698364,0.42760565876960754,0.08918632566928864
1790333702615404500,13.075404541015626,-0.04948008432984352,0.13805554807186127,-0.01771509274840355
1790333702631851800,13.091851806640625,-0.11239920556545258,-0.11056660860776901,0.018936822190880775
1790333702648309800,13.108309814453126,-0.00733038317412138,-0.018936822190880775,-0.018936822190880775
1790333702664796000,13.1247958984375,0.030543262138962746,0.37079519033432007,0.018936822190880775
1790333702681242600,13.14124267578125,-0.09651670604944229,-0.1319468915462494,0.021380282938480377
1790333702697696000,13.157696044921876,0.05314527451992035,-0.13500121235847473,0.0024434609804302454
1790333702714167300,13.174167236328126,-0.021380282938480377,0.08918632566928864,0.024434609338641167
1790333702730656500,13.190656494140624,-0.02687807008624077,0.08002334833145142,-0.05314527451992035
1790333702747110000,13.20710986328125,0,-0.30054569244384766,0.00366519158706069
1790333702763580700,13.22358056640625,0.021380282938480377,-0.06414084881544113,0.030543262138962746
1790333702780041500,13.24004150390625,0.015882495790719986,0.013439035043120384,-0.007941247895359993
1790333702796534800,13.25653466796875,-0.00427605677396059,-0.006108652334660292,0
1790333702813008000,13.2730078125,0.05864306539297104,0.2064724564552307,0.039706241339445114
1790333702829457200,13.28945703125,-0.030543262138962746,-0.051312681287527084,-0.00427605677396059
1790333702845932300,13.305932373046875,-0.030543262138962746,0.182648703455925,-0.036041051149368286
1790333702862389200,13.32238916015625,0.0006108652451075613,-0.06658431142568588,0
1790333702878889500,13.338889404296875,0.06414084881544113,0.36163222789764404,-0.03298672288656235
1790333702894305800,13.354305908203125,-0.03420845419168472,-0.24190263450145721,0.025045474991202354
1790333702910794200,13.370794189453125,0.05742133408784866,-0.03298672288656235,0.005497787147760391
1790333702927265300,13.387265380859375,0.02626720629632473,0.05742133408784866,0.015271631069481373
1790333702943723300,13.40372314453125,-0.0006108652451075613,0.029932396486401558,-0.04581489413976669
1790333702960221000,13.420220947265625,0.03726277872920036,-0.19853121042251587,0.009773843921720982
1790333702976665600,13.43666552734375,0.03787364438176155,-0.04153883829712868,0.027488935738801956
1790333702993116200,13.4531162109375,-0.04153883829712868,0.09773843735456467,-0.02871066704392433
1790333703009585400,13.46958544921875,0.007941247895359993,-0.033597588539123535,0.009162978269159794
1790333703026044400,13.48604443359375,0.09162978827953339,0.33047810196876526,0.03420845419168472
1790333703042487600,13.502487548828125,-0.04886921867728233,-0.12034045159816742,0.02321287989616394
1790333703058945000,13.518945068359375,0.00855211354792118,0.17592918872833252,-0.012217304669320583
1790333703075379200,13.535379150390625,-0.003054326167330146,-0.07757988572120667,-0.012828170321881771
1790333703091873800,13.551873779296875,0,0.22113321721553802,-0.04214970022439957
1790333703108313900,13.56831396484375,-0.04459316283464432,-0.31154128909111023,0.027488935738801956
1790333703124754200,13.584754150390625,0.02626720629632473,-0.09407325088977814,0.02015855349600315
1790333703141224400,13.601224365234375,-0.005497787147760391,-0.005497787147760391,-0.001832595793530345
1790333703157704200,13.6177041015625,-0.014049900695681572,-0.001832595793530345,-0.009162978269159794
1790333703174172000,13.634171875,0.03481931984424591,-0.2767219543457031,0.013439035043120384
1790333703190483200,13.650483154296875,0.0006108652451075613,-0.11789698898792267,0.04092797264456749
1790333703206948400,13.6669482421875,-0.0507018156349659,0.19058994948863983,-0.006108652334660292
1790333703223401200,13.683401123046876,-0.03298672288656235,-0.12767083942890167,0.0403171069920063
1790333703239843000,13.699843017578125,0.03787364438176155,0.17531833052635193,0.025656340643763542
1790333703256283100,13.716283203125,-0.04459316283464432,-0.13500121235847473,0.01771509274840355
1790333703272729900,13.732729736328125,-0.036651913076639175,0.18875735998153687,-0.024434609338641167
1790333703289201000,13.749200927734375,-0.05009094998240471,-0.14966198801994324,0.039095375686883926
1790333703305654300,13.765654296875,0.04886921867728233,0.3549126982688904,-0.019547687843441963
1790333703322096400,13.782096435546874,-0.09773843735456467,-0.16920967400074005,0.04092797264456749
1790333703338537500,13.798537353515625,-0.02015855349600315,0.14782938361167908,-0.00855211354792118
1790333703354990300,13.814990234375,-0.021991148591041565,-0.07452555745840073,0.00427605677396059
1790333703371459800,13.8314599609375,-0.004886921960860491,0.3029891550540924,-0.027488935738801956
1790333703387915500,13.84791552734375,-0.07941248267889023,-0.31093040108680725,0.039706241339445114
1790333703404385500,13.864385498046875,-0.02321287989616394,-0.12828169763088226,-0.012217304669320583
1790333703420824800,13.880824951171874,0.009773843921720982,0.05314527451992035,-0.006108652334660292
1790333703437287700,13.89728759765625,-0.009773843921720982,-0.1007927656173706,0.007941247895359993
1790333703453758000,13.913758056640624,-0.01710422709584236,-0.2834414839744568,0.00733038317412138
1790333703470199600,13.930199462890625,0.014049900695681572,0.003054326167330146,-0.00366519158706069
1790333703486674000,13.946673828125,-0.039095375686883926,0.08857546001672745,-0.02687807008624077
1790333703503117000,13.963116943359376,-0.04703662544488907,-0.13500121235847473,0.021380282938480377
1790333703519565800,13.97956591796875,0.04214970022439957,0.37201693654060364,-0.019547687843441963
1790333703536007200,13.996007080078124,-0.0757472887635231,-0.12828169763088226,0.003054326167330146
1790333703552460300,14.012460205078124,0.0507018156349659,0.08368854224681854,-0.021380282938480377
1790333703568931600,14.028931640625,-0.001832595793530345,-0.0757472887635231,-0.025656340643763542
1790333703585427200,14.04542724609375,0.007941247895359993,0.1918116807937622,-0.05314527451992035
1790333703601868500,14.06186865234375,-0.033597588539123535,-0.31093040108680725,0.007941247895359993
1790333703618310700,14.078310546875,0.0354301854968071,-0.009162978269159794,-0.010995574295520782
1790333703634790700,14.094790771484375,-0.05253441259264946,0.018325956538319588,-0.03726277872920036
1790333703651269400,14.111269287109375,-0.0708603709936142,-0.05192354694008827,0.018936822190880775
1790333703667739000,14.12773876953125,0.04886921867728233,0.22663100063800812,0.021991148591041565
1790333703684181800,14.144181640625,-0.08307767659425735,-0.02871066704392433,0.010995574295520782
1790333703700674300,14.16067431640625,-0.04642575979232788,0.10445795953273773,0.006719517521560192
1790333703717129700,14.177129638671875,0.003054326167330146,-0.07147123664617538,-0.021991148591041565
1790333703733607000,14.19360693359375,0.003054326167330146,0.2718350291252136,-0.02687807008624077
1790333703750077000,14.210076904296875,-0.06841690838336945,-0.4691445231437683,0.03787364438176155
1790333703766523000,14.22652294921875,0.036651913076639175,0.02076941914856434,0.005497787147760391
1790333703782993400,14.242993408203125,-0.009162978269159794,0.028099801391363144,0.003054326167330146
1790333703799475000,14.259474853515625,-0.01710422709584236,-0.10262536257505417,0.006719517521560192
1790333703815915800,14.275915771484375,0.02687807008624077,-0.09712757170200348,0.025045474991202354
1790333703832355600,14.29235546875,-0.01038470957428217,-0.0024434609804302454,0.015882495790719986
1790333703848808000,14.308807861328125,-0.07330382615327835,0.06169738993048668,-0.00427605677396059
1790333703865298400,14.32529833984375,-0.006719517521560192,-0.0507018156349659,-0.021380282938480377
1790333703881779500,14.341779541015624,0.005497787147760391,0.26939156651496887,-0.02626720629632473
1790333703898250800,14.358250732421874,-0.0806342139840126,-0.2687807083129883,0.03726277872920036
1790333703914719500,14.374719482421876,0.05742133408784866,0.060475658625364304,-0.012217304669320583
1790333703931174700,14.391174560546874,0.025656340643763542,0.025656340643763542,0.02321287989616394
1790333703947646200,14.407646240234374,-0.015882495790719986,-0.03481931984424591,-0.007941247895359993
1790333703964080600,14.42408056640625,0.04703662544488907,0.051312681287527084,0.025045474991202354
1790333703980532200,14.4405322265625,-0.03481931984424591,-0.001832595793530345,0.014049900695681572
1790333703997026800,14.45702685546875,-0.06108652427792549,0.1014036312699318,-0.02687807008624077
1790333704013482200,14.473482177734375,0.010995574295520782,-0.0910189226269722,-0.04337143152952194
1790333704029951000,14.489950927734375,0.036651913076639175,0.24434609711170197,-0.03848451003432274
1790333704046403600,14.506403564453125,-0.07452555745840073,-0.2730567753314972,0.007941247895359993
1790333704062708200,14.522708251953125,0.05619960278272629,0.036651913076639175,-0.013439035043120384
1790333704079212800,14.539212890625,0.0006108652451075613,0.021991148591041565,0.004886921960860491
1790333704095673300,14.55567333984375,-0.030543262138962746,0.00733038317412138,0.018936822190880775
1790333704112148200,14.572148193359375,0.03848451003432274,0.16859880089759827,0.02871066704392433
1790333704128593200,14.58859326171875,-0.05742133408784866,0,0.009162978269159794
1790333704145098200,14.60509814453125,-0.03176499158143997,0.1417207419872284,-0.014049900695681572
1790333704161565200,14.621565185546874,0.02015855349600315,-0.06536258012056351,-0.042760565876960754
1790333704178028300,14.6380283203125,0.02687807008624077,0.15332718193531036,-0.045204028487205505
1790333704194496800,14.654496826171876,0.00427605677396059,-0.2779437005519867,0.014049900695681572
1790333704210951200,14.670951171875,0.10018189996480942,0.054367005825042725,-0.01771509274840355
1790333704227420200,14.687420166015626,0.009162978269159794,0.07819075137376785,-0.015882495790719986
1790333704243914200,14.703914306640625,-0.018936822190880775,0.006108652334660292,0.00366519158706069
1790333704260376300,14.720376220703125,0.06658431142568588,0.21380282938480377,0.00855211354792118
1790333704276820000,14.736820068359375,-0.05925392732024193,-0.08429940044879913,0.006719517521560192
1790333704293263000,14.75326318359375,0.05253441259264946,0.05314527451992035,-0.009162978269159794
1790333704309715500,14.769715576171874,0.05375614017248154,0.045204028487205505,0.01710422709584236
1790333704326211600,14.786211669921874,0.01038470957428217,-0.004886921960860491,-0.013439035043120384
1790333704342684000,14.802683837890624,0.05009094998240471,-0.04886921867728233,0.02015855349600315
1790333704359153700,14.819153564453124,0.02626720629632473,0.01710422709584236,0.0024434609804302454
1790333704375623000,14.835622802734376,-0.03481931984424591,0.03298672288656235,-0.00427605677396059
1790333704392126700,14.852126708984375,0.016493361443281174,-0.0555887371301651,-0.0403171069920063
1790333704408592600,14.868592529296874,-0.15760323405265808,1.929112434387207,-0.6188064813613892
1790333704425031700,14.88503173828125,-0.5699372887611389,4.84721565246582,-1.5454890727996826
1790333704441468400,14.901468505859375,-0.029932396486401558,0.5595525503158569,-2.157576084136963
1790333704457903400,14.9179033203125,0.3628539443016052,0.2382374405860901,-1.8942930698394775
1790333704474338800,14.9343388671875,0.6908885836601257,0.3952298164367676,-1.8973474502563477
1790333704490774300,14.950774169921875,0.23945917189121246,1.076344609260559,-0.4758640229701996
1790333704507214000,14.967214111328126,0.342695415019989,-1.23394775390625,1.4129313230514526
1790333704523648800,14.983648681640625,0.5693264007568359,0.3243694305419922,1.2675453424453735
1790333704540084000,15.000083984375,0.8203920125961304,0.039095375686883926,2.0109684467315674
1790333704556520200,15.016520263671875,-0.04398229718208313,-4.574159145355225,-0.6511823534965515
1790333704572957000,15.03295703125,0.4489859640598297,-0.039706241339445114,1.1917980909347534
1790333704589393400,15.049393310546876,1.2400563955307007,-0.13011430203914642,-0.9101892113685608
1790333704605832700,15.065832763671875,0.17776179313659668,3.8643336296081543,-1.4123204946517944
1790333704622273800,15.082273681640626,-0.5057964324951172,2.9523117542266846,-1.7721201181411743
1790333704638743600,15.09874365234375,-0.7360926270484924,1.1282681226730347,-1.6688838005065918
1790333704655181000,15.11518115234375,-0.08735372871160507,1.2693779468536377,-0.9327912330627441
1790333704671619600,15.13161962890625,0.05803219974040985,-0.4807509481906891,0.34086281061172485
1790333704688059400,15.148059326171875,0.056810468435287476,-0.685390830039978,0.5778785347938538
1790333704704496400,15.164496337890625,-0.04214970022439957,-0.19120082259178162,0.182648703455925
1790333704720938200,15.180938232421875,0.012217304669320583,-0.0507018156349659,0.019547687843441963
1790333704737405700,15.19740576171875,0.03298672288656235,-1.091616153717041,0.9352346658706665
1790333704753854700,15.213854736328125,0.5937610268592834,0.07941248267889023,1.4184291362762451
1790333704770292000,15.2302919921875,0.34758231043815613,-4.787351131439209,0.3677408695220947
1790333704786725400,15.246725341796875,0.2883284091949463,-2.9602530002593994,1.0097602605819702
1790333704803157500,15.263157470703124,0.04703662544488907,-1.9285016059875488,1.0958921909332275
1790333704819587800,15.279587890625,0.03787364438176155,-4.475198745727539,1.3781119585037231
1790333704836019200,15.296019287109376,0.6896668672561646,-0.12522737681865692,0.17043140530586243
1790333704852454100,15.3124541015625,0.5558874011039734,-0.7489207983016968,0.17470745742321014
1790333704868885500,15.328885498046875,0.21380282938480377,0.44165557622909546,-0.2620611786842346
1790333704885345800,15.345345703125,0.22540926933288574,0.5393940210342407,-0.22479841113090515
1790333704901778700,15.36177880859375,0.2981022298336029,0.3854559659957886,-0.23884831368923187
1790333704918189800,15.37818994140625,-0.08307767659425735,-0.09346238523721695,0.05375614017248154
1790333704934624000,15.3946240234375,-0.3536909818649292,-0.5650503635406494,0.35063666105270386
1790333704951054300,15.411054443359374,-0.39706242084503174,0.2431243658065796,0.29565876722335815
1790333704967491600,15.42749169921875,-0.06169738993048668,0.21991148591041565,0.03420845419168472
1790333704983919600,15.443919677734375,0.019547687843441963,0.15332718193531036,-0.015271631069481373
1790333705000354300,15.460354248046874,-0.006719517521560192,0.028099801391363144,-0.03237585723400116
1790333705016839400,15.47683935546875,-0.01466076634824276,0.16432274878025055,-0.01710422709584236
1790333705033269200,15.493269287109374,-0.04398229718208313,-0.24862214922904968,0.04886921867728233
1790333705049699000,15.509698974609375,-0.001832595793530345,-0.12034045159816742,-0.0006108652451075613
1790333705066130200,15.526130126953126,0.10812314599752426,-0.3243694305419922,-0.06841690838336945
1790333705082541800,15.542541748046874,0.6438519954681396,-1.2883148193359375,-0.5345070958137512
1790333705098853400,15.558853271484375,0.9474520087242126,-0.9254608750343323,-1.1636983156204224
1790333705115248600,15.57524853515625,0.04642575979232788,0.8234463334083557,-0.5192354321479797
1790333705131750100,15.591750244140625,0.07147123664617538,-0.4398229718208313,-0.09834930300712585
1790333705148180700,15.6081806640625,0.01710422709584236,-0.7086036801338196,0.06536258012056351
1790333705164611600,15.624611572265625,-0.025045474991202354,-0.7855727076530457,0.12461651116609573
1790333705180987000,15.64098681640625,0.004886921960860491,-0.12095131725072861,-0.001832595793530345
1790333705197451000,15.657450927734375,-0.009162978269159794,-0.05375614017248154,-0.00733038317412138
1790333705213913900,15.673913818359376,-0.015882495790719986,0.018325956538319588,-0.0403171069920063
1790333705230397200,15.690397216796875,-0.012217304669320583,-0.036041051149368286,-0.0507018156349659
1790333705246843600,15.70684375,0.006108652334660292,0.018325956538319588,-0.013439035043120384
1790333705263300900,15.72330078125,-0.03726277872920036,0.06536258012056351,-0.019547687843441963
1790333705279763500,15.739763427734376,-0.012217304669320583,-0.05803219974040985,-0.015882495790719986
1790333705296231400,15.7562314453125,0.013439035043120384,-0.0024434609804302454,0.02321287989616394
1790333705312720400,15.772720458984375,0.022602014243602753,0.033597588539123535,0.05314527451992035
1790333705329165000,15.7891650390625,0.048258353024721146,-0.14844025671482086,0.09896016865968704
1790333705345628200,15.805628173828126,0.0403171069920063,0.02015855349600315,0.05925392732024193
1790333705362091500,15.822091552734374,0.1765400618314743,-0.04703662544488907,0.039706241339445114
1790333705378556400,15.838556396484375,0.294437050819397,0.04948008432984352,-0.07208210229873657
1790333705394991400,15.854991455078125,0.35124751925468445,0.11667526513338089,-0.06902777403593063
1790333705411425000,15.871425048828126,0.28955012559890747,0.04337143152952194,-0.2376265823841095
1790333705427889000,15.887888916015624,0.021991148591041565,0.251676470041275,-0.18448130786418915
1790333705444322800,15.90432275390625,0.0659734457731247,0.0806342139840126,-0.05925392732024193
1790333705460758000,15.920758056640626,0.04764748737215996,0.1007927656173706,-0.11667526513338089
1790333705477192400,15.9371923828125,0.028099801391363144,0.12278391420841217,-0.0959058403968811
1790333705493632500,15.953632568359374,0.09346238523721695,0.2278527319431305,-0.3604104816913605
1790333705510066000,15.97006591796875,-0.13072516024112701,0.8991936445236206,-0.5656611919403076
1790333705526498000,15.986498046875,-0.6395758986473083,1.5986343622207642,-0.6517932415008545
1790333705542931200,16.00293115234375,-0.770301103591919,1.7244726419448853,-0.6053674817085266
1790333705559398700,16.019398681640624,-1.0403034687042236,1.645671010017395,-0.7562511563301086
1790333705575827200,16.0358271484375,-1.2052371501922607,1.13926362991333,-0.8692612648010254
1790333705592255000,16.0522548828125,-1.1661417484283447,1.0250319242477417,-0.8943067193031311
1790333705608685300,16.068685302734377,-1.0134254693984985,-0.029932396486401558,-0.5448917746543884
1790333705625144300,16.085144287109376,-1.2003501653671265,0.3597996234893799,-0.46364670991897583
1790333705641572000,16.101572021484376,-1.4373658895492554,0.17470745742321014,-0.7739662528038025
1790333705657998300,16.117998291015624,-1.3274102210998535,0.3494149148464203,-0.6401867866516113
1790333705674428000,16.134427978515625,-0.9327912330627441,0.10995574295520782,-0.5143485069274902
1790333705690858200,16.150858154296873,-0.25473082065582275,0.09712757170200348,-0.22296582162380219
1790333705707292700,16.167292724609375,0.13316862285137177,0.018325956538319588,-0.09468411654233932
1790333705723729200,16.183729248046873,0.16920967400074005,0.1612684279680252,-0.09346238523721695
1790333705740167200,16.200167236328124,0.11301007121801376,-0.0354301854968071,0.021380282938480377
1790333705756599800,16.216599853515625,0.3084869384765625,0.019547687843441963,0.07269296050071716
1790333705773033500,16.233033447265626,0.36102136969566345,0.024434609338641167,0.2730567753314972
1790333705789468200,16.24946826171875,0.47342056035995483,-0.4807509481906891,0.45204028487205505
1790333705805933600,16.26593359375,0.66584312915802,0.13316862285137177,0.588263213634491
1790333705822368800,16.28236865234375,0.7269296646118164,-0.5510004758834839,0.6487388610839844
1790333705838804700,16.2988046875,1.0140362977981567,-1.2736539840698242,1.0042624473571777
1790333705855239700,16.31523974609375,0.8930850028991699,-1.453248381614685,1.1753047704696655
1790333705871702300,16.331702392578126,0.6188064813613892,0.23518311977386475,0.6401867866516113
1790333705888136400,16.348136474609376,0.18448130786418915,1.3903292417526245,0.4092797040939331
1790333705904568000,16.364568115234373,0.35124751925468445,-0.6041457056999207,0.21502456068992615
1790333705920885500,16.380885498046876,0.39767327904701233,-0.07635815441608429,0.4282165467739105
1790333705937318100,16.397318115234373,0.34086281061172485,-0.6579018831253052,0.5015203952789307
1790333705953758500,16.413758544921876,-0.05009094998240471,-2.8570168018341064,0.42210787534713745
1790333705970190300,16.4301904296875,0.19975294172763824,-2.9327640533447266,1.376279354095459
1790333705986627600,16.446627685546876,0.12034045159816742,-0.8704829812049866,0.5296201705932617
1790333706003060000,16.46306005859375,0.24007004499435425,-0.2981022298336029,0.12950342893600464
1790333706019490300,16.479490234375,0.007941247895359993,0.15454891324043274,0.0555887371301651
1790333706035951600,16.49595166015625,-0.07391469180583954,0.031154127791523933,0.02871066704392433
1790333706052410400,16.512410400390625,-0.14294247329235077,0.16004669666290283,0.03237585723400116
1790333706068842800,16.5288427734375,-0.1661553531885147,0.22968533635139465,0.04886921867728233
1790333706085237000,16.545237060546874,-0.13377949595451355,-0.11423180252313614,-0.1319468915462494
1790333706101675000,16.561675048828125,-0.21563543379306793,-0.7220427393913269,-0.3494149148464203
1790333706118142200,16.57814208984375,-0.17837265133857727,-0.7177666425704956,-0.39706242084503174
1790333706134576400,16.594576416015624,-0.06902777403593063,0.16737708449363708,-0.11301007121801376
1790333706151012600,16.6110126953125,0.32681289315223694,0.22968533635139465,0.14294247329235077
1790333706167449300,16.627449462890624,0.11789698898792267,0.21991148591041565,0.08002334833145142
1790333706183884800,16.643884765625,0.08796459436416626,0.06169738993048668,0.06475171446800232
1790333706200321300,16.6603212890625,0.031154127791523933,0.21380282938480377,0.07208210229873657
1790333706216724700,16.676724853515626,0.006108652334660292,0.06352998316287994,0.018325956538319588
1790333706233117400,16.693117431640626,0.009773843921720982,-0.08796459436416626,-0.03237585723400116
1790333706249604000,16.70960400390625,0.06352998316287994,0.08124507963657379,0.012217304669320583
1790333706266033700,16.72603369140625,-0.03481931984424591,0.004886921960860491,0.02076941914856434
1790333706282497800,16.742497802734373,0.02321287989616394,0.0024434609804302454,0.02015855349600315
1790333706298954800,16.758954833984376,0.0806342139840126,0.03848451003432274,0.05192354694008827
1790333706315393000,16.77539306640625,0.021380282938480377,-0.07391469180583954,0.07452555745840073
1790333706331824000,16.79182421875,0.02321287989616394,-0.00855211354792118,0.01710422709584236
1790333706348317000,16.80831689453125,-0.051312681287527084,0.17104226350784302,0.10567969083786011
1790333706364777000,16.82477685546875,-0.06291911751031876,0.25595253705978394,0.13377949595451355
1790333706381208000,16.8412080078125,0.06169738993048668,0.3738495409488678,0.2382374405860901
1790333706397638400,16.857638427734376,0.039706241339445114,0.09407325088977814,0.152105450630188
1790333706414070300,16.8740703125,0.13988813757896423,0.5919284224510193,0.12950342893600464
1790333706430503000,16.8905029296875,0.3127630054950714,0.031154127791523933,0.27550023794174194
1790333706446934300,16.906934326171875,0.3701843321323395,-0.45692721009254456,0.3854559659957886
1790333706463366700,16.92336669921875,0.2223549485206604,0.3029891550540924,0.5974262356758118
1790333706479803400,16.939803466796874,0.2541199326515198,0.44776421785354614,0.8735373020172119
1790333706496235500,16.956235595703124,0.021991148591041565,-0.11911872029304504,0.8533787727355957
1790333706512668000,16.97266796875,-0.4098905920982361,0.1417207419872284,0.38179078698158264
1790333706529101800,16.989101806640626,-0.6481280326843262,0.4447098970413208,0.031154127791523933
1790333706545424600,17.005424560546874,-0.46181413531303406,1.321912407875061,-0.11484266817569733
1790333706561855000,17.02185498046875,-0.34025195240974426,1.6016886234283447,0.029932396486401558
1790333706578285600,17.03828564453125,-0.23579397797584534,0.8717046976089478,-0.05742133408784866
1790333706594716000,17.0547158203125,-0.1258382350206375,-0.1368338167667389,0.03787364438176155
1790333706611178500,17.071178466796876,-0.3029891550540924,-0.759916365146637,0.5516113042831421
1790333706627611000,17.08761083984375,-0.4098905920982361,-1.2370021343231201,0.7849618196487427
1790333706644042500,17.10404248046875,-0.1111774742603302,-2.1068742275238037,0.5650503635406494
1790333706660474400,17.120474365234376,-0.00733038317412138,-1.0427470207214355,0.8747590184211731
1790333706676906000,17.136906005859377,0.24862214922904968,0.45753806829452515,0.49846604466438293
1790333706693337000,17.153337158203126,0.2791654169559479,1.8484781980514526,-0.07757988572120667
1790333706709767200,17.16976708984375,0.48869219422340393,2.1148154735565186,-0.626747727394104
1790333706726202600,17.18620263671875,0.50335294008255,2.216219186782837,-1.3952162265777588
1790333706742633200,17.20263330078125,0.2779437005519867,1.6157386302947998,-1.7140878438949585
1790333706759064800,17.21906494140625,0.13805554807186127,0.8362745046615601,-1.683544635772705
1790333706775497500,17.23549755859375,-0.2565633952617645,0.9224064946174622,-1.178359031677246
1790333706791928600,17.251928466796876,-0.4153883755207062,0.7397578358650208,-0.3634648323059082
1790333706808360000,17.26835986328125,-0.5009095072746277,-0.1062905490398407,0.2883284091949463
1790333706824795100,17.284795166015623,0.19853121042251587,0.6762278079986572,-0.15393804013729095
1790333706841229000,17.30122900390625,0.5772676467895508,0.423329621553421,-0.42577308416366577
1790333706857696000,17.317696044921874,0.384845107793808,-0.8509352803230286,-0.807563841342926
1790333706874131500,17.33413134765625,-0.17837265133857727,-0.24007004499435425,0.2632829248905182
1790333706890569000,17.35056884765625,-0.21441370248794556,-0.5491678714752197,0.4954117238521576
1790333706907004700,17.367004638671876,-0.3121521472930908,-1.8869627714157104,0.759305477142334
1790333706923440600,17.383440673828126,-0.15454891324043274,-2.3707680702209473,0.6010913848876953
1790333706939748400,17.399748291015626,0.31581732630729675,-0.608421802520752,-0.11423180252313614
1790333706956185000,17.41618505859375,0.303600013256073,0.16798794269561768,-0.20952677726745605
1790333706972607000,17.43260693359375,0.2535090744495392,0.42760565876960754,-0.2736676335334778
1790333706988083200,17.448083251953125,0.23518311977386475,-0.4703662395477295,-0.3286454975605011
1790333707004521700,17.464521728515624,0.07819075137376785,-1.814880609512329,-0.5076290369033813
1790333707020958700,17.480958740234374,-0.056810468435287476,-1.6059647798538208,-0.2571742534637451
1790333707037395000,17.49739501953125,-0.4239404797554016,-1.624901533126831,-0.1869247704744339
1790333707053832000,17.51383203125,-0.2822197377681732,-1.1655309200286865,0.18875735998153687
1790333707070271000,17.53027099609375,0.45204028487205505,-1.3652838468551636,-0.6499606370925903
1790333707086716700,17.546716552734374,0.6579018831253052,-0.4190535545349121,-0.11239920556545258
1790333707103186400,17.5631865234375,-0.0861319974064827,0.31581732630729675,0.18081611394882202
1790333707119625000,17.579625,0.11178833991289139,-0.1459967941045761,-0.27611109614372253
1790333707136061200,17.596061279296876,0.1417207419872284,-0.17287486791610718,-0.26511552929878235
1790333707152499500,17.61249951171875,0.06780604273080826,0.039095375686883926,-0.12522737681865692
1790333707168935000,17.628934814453125,0.04764748737215996,-0.26083946228027344,-0.22968533635139465
1790333707185380400,17.64538037109375,-0.07147123664617538,-0.17470745742321014,-0.46670106053352356
1790333707201708500,17.66170849609375,-0.3836233615875244,0.5711590051651001,-0.8576548099517822
1790333707218098200,17.67809814453125,-0.7849618196487427,1.1081095933914185,-0.5216789245605469
1790333707234534100,17.6945341796875,-0.5027421116828918,1.0396926403045654,-0.2174680233001709
1790333707250972400,17.710972412109374,-0.5308418869972229,1.2211196422576904,-0.44226643443107605
1790333707267414300,17.727414306640625,-0.36651915311813354,0.5064072608947754,-0.3634648323059082
1790333707283854600,17.7438544921875,-0.20463985204696655,-0.00366519158706069,-0.2528982162475586
1790333707300294400,17.76029443359375,-0.2730567753314972,0.455705463886261,-0.4282165467739105
1790333707316734000,17.77673388671875,-0.19120082259178162,0.6805039048194885,-0.1459967941045761
1790333707333172000,17.793171875,-0.17287486791610718,0.7079927921295166,0.3243694305419922
1790333707349641000,17.809640869140626,-0.1918116807937622,0.34574973583221436,-0.04214970022439957
1790333707366078000,17.826077880859376,-0.16004669666290283,0.21502456068992615,-0.22113321721553802
1790333707382514200,17.84251416015625,-0.1918116807937622,0.15271630883216858,0.029932396486401558
1790333707398952200,17.8589521484375,-0.1472185254096985,-0.05192354694008827,-0.18081611394882202
1790333707415390200,17.87539013671875,-0.22296582162380219,0.09407325088977814,-0.3787364661693573
1790333707431828200,17.891828125,-0.3170390725135803,-0.004886921960860491,-0.6346889734268188
1790333707448267000,17.90826708984375,-0.30543261766433716,0.0910189226269722,-0.6664539575576782
1790333707464713000,17.924712890625,-0.10323622822761536,-0.0555887371301651,-0.06963863968849182
1790333707481154300,17.941154296875,-0.04398229718208313,-0.13377949595451355,0.02871066704392433
1790333707497629400,17.95762939453125,-0.13561208546161652,-0.04214970022439957,-0.10445795953273773
1790333707514070800,17.97407080078125,-0.21563543379306793,0.039095375686883926,-0.17898350954055786
1790333707530509300,17.99050927734375,-0.4404338300228119,-0.10690141469240189,-0.18875735998153687
1790333707546948900,18.006948974609376,-0.2590068578720093,0.18570303916931152,-0.2021963894367218
1790333707563387600,18.0233876953125,-0.0012217304902151227,-0.10201449692249298,-0.013439035043120384
1790333707579858200,18.039858154296876,-0.06536258012056351,0.25595253705978394,-0.04948008432984352
1790333707596323600,18.056323486328125,-0.09285151958465576,0.8741481900215149,-0.08552113175392151
1790333707612760300,18.07276025390625,-0.18936823308467865,0.978606104850769,0.16798794269561768
1790333707629198600,18.089198486328126,-0.2687807083129883,1.431868076324463,0.35674530267715454
1790333707645640200,18.10564013671875,-0.18631389737129211,1.3750576972961426,0.8008443117141724
1790333707662077200,18.1220771484375,-0.7837401032447815,0.34758231043815613,0.18936823308467865
1790333707678515200,18.13851513671875,-1.0030407905578613,0.423329621553421,0.12461651116609573
1790333707694952400,18.154952392578124,-0.8570439219474792,0.19914206862449646,0.2028072625398636
1790333707711394000,18.17139404296875,-0.42638394236564636,-0.21624629199504852,0.11667526513338089
1790333707727827500,18.187827392578125,-0.06780604273080826,-0.06352998316287994,0.018936822190880775
1790333707744292400,18.204292236328126,-0.00733038317412138,0.13500121235847473,-0.025045474991202354
1790333707760755500,18.22075537109375,-0.06108652427792549,-0.2681698501110077,0.024434609338641167
1790333707777218600,18.237218505859374,0.04337143152952194,0.11972958594560623,0
1790333707793668400,18.25366845703125,0.005497787147760391,-0.02626720629632473,0.1215621829032898
1790333707810106600,18.270106689453126,0.3799581825733185,-1.3573426008224487,0.969443142414093
1790333707826545700,18.286545654296877,0.675616979598999,-1.1264355182647705,1.5027284622192383
1790333707843016000,18.303015869140626,0.5937610268592834,-1.4966198205947876,0.8448266386985779
1790333707859454700,18.319454833984373,0.960280179977417,-1.6945401430130005,1.0525208711624146
1790333707875894800,18.335894775390624,0.6304129362106323,-0.19303341209888458,0.6352998614311218
1790333707892370700,18.35237060546875,0.2541199326515198,0.06230825558304787,0.31642818450927734
1790333707908812300,18.368812255859375,0.08796459436416626,-0.018325956538319588,0.06719517707824707
1790333707925254400,18.38525439453125,0.12828169763088226,-0.01710422709584236,0.18570303916931152
1790333707941709300,18.401709228515625,0.11056660860776901,-0.01771509274840355,0.054367005825042725
1790333707958208800,18.418208740234373,0.15760323405265808,-0.08857546001672745,0.05497787147760391
1790333707974678300,18.43467822265625,0.3090978264808655,-0.3494149148464203,0.04337143152952194
1790333707991116300,18.4511162109375,0.33597588539123535,-0.08307767659425735,-0.17409659922122955
1790333708007555600,18.4675556640625,0.6627888083457947,-0.30604347586631775,0.40133845806121826
1790333708023995100,18.4839951171875,0.8222246170043945,-0.19486601650714874,0.827722430229187
1790333708040435000,18.50043505859375,0.8497135639190674,-0.8869763612747192,1.0506882667541504
1790333708056874800,18.516874755859376,0.7055493593215942,-0.5271766781806946,1.0512990951538086
1790333708073315600,18.533315673828124,0.33658674359321594,-0.242513507604599,0.5717698931694031
1790333708089735400,18.5497353515625,-0.014049900695681572,-0.6285803318023682,0.2681698501110077
1790333708106177300,18.56617724609375,-0.17409659922122955,0.7776314616203308,-0.07147123664617538
1790333708122619600,18.58261962890625,-0.22602014243602753,0.8362745046615601,-0.323147714138031
1790333708139058400,18.599058349609376,-0.19058994948863983,-0.26572638750076294,-0.10873401165008545
1790333708155495000,18.615494873046874,0.342695415019989,0.36163222789764404,-0.48808133602142334
1790333708171910100,18.63191015625,0.656680166721344,0.027488935738801956,-0.4386012554168701
1790333708188346600,18.6483466796875,0.6609562039375305,-1.0482447147369385,0.29138273000717163
1790333708204788700,18.664788818359376,0.45326200127601624,-0.5125159621238708,0.3689626157283783
1790333708221225700,18.681225830078127,0.13744467496871948,-0.016493361443281174,-0.03176499158143997
1790333708237663200,18.697663330078125,-0.13377949595451355,0.2724458873271942,0.07208210229873657
1790333708254098200,18.71409814453125,-0.2919935882091522,0.15577064454555511,0.2779437005519867
1790333708270567200,18.730567138671876,-0.6682865619659424,-0.11056660860776901,0.7342600226402283
1790333708287000800,18.747000732421874,0.060475658625364304,-0.1973094791173935,0.08491026610136032
1790333708303434500,18.7634345703125,0.3219259977340698,-0.5809328556060791,-0.39095374941825867
1790333708319869400,18.779869384765625,-0.048258353024721146,-0.24984388053417206,0.14844025671482086
1790333708336323000,18.796322998046875,-0.033597588539123535,-0.012828170321881771,0.2070833146572113
1790333708352754200,18.812754150390624,0.1215621829032898,0.02932153269648552,0.252287358045578
1790333708369188600,18.829188720703126,0.15515977144241333,-0.07391469180583954,0.252287358045578
1790333708385622300,18.845622314453124,0.16737708449363708,-0.1966986060142517,0.060475658625364304
1790333708402054400,18.862054443359376,0.03787364438176155,0.09896016865968704,-0.2828305959701538
1790333708418486800,18.87848681640625,0.21502456068992615,0.08735372871160507,-0.15271630883216858
1790333708434921200,18.894921142578124,0.18081611394882202,-0.012828170321881771,0.15577064454555511
1790333708451362000,18.911362060546875,-0.10751228034496307,3.0671544075012207,-2.295020818710327
1790333708467797000,18.927796875,-0.3188716471195221,2.891836166381836,-1.8741345405578613
1790333708484232400,18.944232421875,-0.598647952079773,1.3078625202178955,0.6053674817085266
1790333708500668200,18.960668212890624,-0.3885102868080139,-0.3023782968521118,0.5552765130996704
1790333708517102300,18.977102294921874,0.8600982427597046,-0.6890559792518616,1.2797627449035645
1790333708533532400,18.993532470703126,0.2828305959701538,-0.4184426963329315,2.1203131675720215
1790333708549964300,19.00996435546875,-1.2541064023971558,-0.20891591906547546,1.531439185142517
1790333708566398000,19.02639794921875,-0.8845328688621521,-1.0983357429504395,-0.32070425152778625
1790333708582860000,19.042860107421873,-0.6933320760726929,0.3023782968521118,0.02321287989616394
1790333708599291000,19.059290771484374,0.375071257352829,-0.6725626587867737,0.42271876335144043
1790333708615719700,19.0757197265625,1.2376129627227783,-3.498425245285034,-0.6670648455619812
1790333708632152800,19.09215283203125,0.4331034719944,-0.08918632566928864,0.014049900695681572
1790333708648587300,19.108587158203125,0.03420845419168472,-2.7201828956604004,1.4208725690841675
1790333708665023000,19.12502294921875,0.5516113042831421,-0.6230825781822205,0.5791002511978149
1790333708681456400,19.141456298828125,1.205847978591919,-0.39156460762023926,0.3549126982688904
1790333708697893600,19.1578935546875,1.2822061777114868,0.2590068578720093,-0.0659734457731247
1790333708714327600,19.17432763671875,1.3652838468551636,0.42271876335144043,-0.7672467231750488
1790333708730761200,19.19076123046875,1.361007809638977,-0.1007927656173706,-1.5650367736816406
1790333708747198000,19.207197998046876,1.3329079151153564,0.627358615398407,-2.171625852584839
1790333708763635700,19.2236357421875,0.8289441466331482,1.007927656173706,-2.3493876457214355
1790333708780072700,19.24007275390625,0.11972958594560623,1.5717562437057495,-2.507601737976074
1790333708796510200,19.25651025390625,-1.0054842233657837,5.081177234649658,-4.045760631561279
1790333708812948000,19.272947998046874,-1.0012081861495972,2.750115394592285,-1.7837265729904175
1790333708829417200,19.289417236328124,-0.46792277693748474,0.02932153269648552,-0.30054569244384766
1790333708845855000,19.30585498046875,-0.006108652334660292,-0.029932396486401558,0.042760565876960754
1790333708862295800,19.3222958984375,-0.022602014243602753,-0.09712757170200348,0.12339477986097336
1790333708878763500,19.338763427734374,-0.05864306539297104,0.07941248267889023,-0.07513642311096191
1790333708895235000,19.355235107421876,-0.042760565876960754,-0.1014036312699318,0.08246681094169617
1790333708911672300,19.37167236328125,-0.08918632566928864,-0.00366519158706069,-0.036041051149368286
1790333708928136000,19.388135986328123,-0.2431243658065796,-0.07819075137376785,-0.1814269721508026
1790333708944579000,19.4045791015625,-0.4129449129104614,-0.045204028487205505,-0.4056145250797272
1790333708961019000,19.421018798828126,-0.35063666105270386,-0.33169981837272644,-0.26572638750076294
1790333708977452300,19.437452392578123,-0.15454891324043274,-0.47342056035995483,0.025656340643763542
1790333708993886700,19.45388671875,-0.05192354694008827,-0.22663100063800812,-0.1014036312699318
1790333709010327000,19.4703271484375,-0.14233160018920898,-0.015271631069481373,-0.29504790902137756
1790333709026767400,19.486767333984375,-0.3793473243713379,-0.001832595793530345,-0.5809328556060791
1790333709043202000,19.5032021484375,-0.4245513379573822,0.4966334402561188,-0.9816604256629944
1790333709059636500,19.519636474609374,-0.32070425152778625,0.4703662395477295,-0.7483099102973938
1790333709076081000,19.536080810546874,-0.17043140530586243,0.6811147332191467,-0.9083566069602966
1790333709092573200,19.5525732421875,0.009162978269159794,0.5632177591323853,-0.4538728892803192
1790333709109008600,19.569008544921875,-0.00366519158706069,1.0873401165008545,-0.6609562039375305
1790333709125446400,19.5854462890625,-0.09346238523721695,1.2217304706573486,-0.5827654600143433
1790333709141880600,19.601880615234375,0.06963863968849182,-0.6902777552604675,-0.4856378734111786
1790333709158316300,19.61831640625,0.23029619455337524,-0.6860016584396362,-0.3897320330142975
1790333709174750500,19.63475048828125,0.006108652334660292,0.29138273000717163,-0.42699480056762695
1790333709191192300,19.6511923828125,0.15271630883216858,0.3194825351238251,-0.2431243658065796
1790333709207492400,19.667492431640625,0.19303341209888458,0.2015855312347412,-0.0959058403968811
1790333709223927600,19.683927490234375,0.11178833991289139,-0.1062905490398407,-0.07941248267889023
1790333709240362000,19.700362060546876,0.02321287989616394,0.16371189057826996,-0.0555887371301651
1790333709256795000,19.716794921875,-0.04703662544488907,0.5119050741195679,-0.024434609338641167
1790333709273229800,19.733229736328123,-0.019547687843441963,0.4105014503002167,0.036651913076639175
1790333709289666600,19.74966650390625,0.04337143152952194,0.9248499870300293,0.09834930300712585
1790333709306104000,19.76610400390625,0.17348572611808777,0.4605923891067505,0.11728613078594208
1790333709322572500,19.782572509765625,0.152105450630188,0.3549126982688904,0.08368854224681854
1790333709339007700,19.7990078125,0.15271630883216858,0.7660250067710876,0.12034045159816742
1790333709355444200,19.8154443359375,0.20036379992961884,0.02871066704392433,0.11545353382825851
1790333709371881500,19.831881591796876,-0.015882495790719986,0.3695734739303589,0.09407325088977814
1790333709388317000,19.84831689453125,-0.01466076634824276,0.3170390725135803,-0.00427605677396059
1790333709404753000,19.8647529296875,-0.152105450630188,0.5809328556060791,0.02932153269648552
1790333709421185000,19.88118505859375,-0.10873401165008545,0.6811147332191467,-0.02626720629632473
1790333709437624600,19.89762451171875,0.06658431142568588,0.2076941877603531,-0.1618792861700058
1790333709454058500,19.91405859375,-0.048258353024721146,0.007941247895359993,-0.2822197377681732
1790333709470494200,19.930494140625,-0.19547687470912933,-0.07452555745840073,-0.2376265823841095
1790333709486928100,19.94692822265625,-0.5174028873443604,-0.50335294008255,-0.34697145223617554
1790333709503361000,19.963361083984374,-0.47830748558044434,-0.304210901260376,-0.5216789245605469
1790333709519795000,19.979794921875,-0.836885392665863,1.1997393369674683,-0.17837265133857727
1790333709536232700,19.996232666015626,-0.30054569244384766,0.24007004499435425,-0.08429940044879913
1790333709552668400,20.01266845703125,0.051312681287527084,0.4147774875164032,-0.04214970022439957
1790333709569135400,20.02913525390625,0.02626720629632473,0.6395758986473083,-0.0012217304902151227
1790333709585572000,20.045572021484375,-0.031154127791523933,0.12828169763088226,-0.0354301854968071
1790333709602010400,20.06201025390625,-0.19120082259178162,0.4550946056842804,-0.007941247895359993
1790333709618449700,20.07844970703125,-0.2480112910270691,0.1716531366109848,-0.00427605677396059
1790333709634887000,20.094886962890627,-0.20036379992961884,-0.31520646810531616,-0.02687807008624077
1790333709651324000,20.111323974609373,-0.1111774742603302,-0.252287358045578,0.05864306539297104
1790333709667760400,20.127760498046875,-0.006108652334660292,0.04581489413976669,0.16493362188339233
1790333709684206000,20.1442060546875,0.06719517707824707,-0.14966198801994324,0.44837507605552673
1790333709700645400,20.160645263671874,0.6957755088806152,-0.7189884185791016,1.2767083644866943
1790333709717084200,20.177084228515625,1.0800096988677979,-3.4519994258880615,0.2828305959701538
1790333709733524500,20.1935244140625,0.1313360333442688,0.13439035415649414,0.6823364496231079
1790333709749963500,20.209963623046875,0.2785545587539673,0.07941248267889023,0.6346889734268188
1790333709766400800,20.22640087890625,0.9896016716957092,0.11178833991289139,0.6585127115249634
