time,seconds_elapsed,z,y,x
1790333689674720300,0.13472021484375,4.618414878845215,8.04930591583252,-2.894589900970459
1790333689691170800,0.1511708984375,4.675876140594482,7.951143741607666,-3.0095114707946777
1790333689707646500,0.167646484375,5.109226226806641,7.778761386871338,-3.098097085952759
1790333689724111000,0.184111083984375,5.521028995513916,7.833827972412109,-3.2752678394317627
1790333689740659200,0.2006591796875,5.372588634490967,7.920019149780273,-3.1483752727508545
1790333689757132000,0.217132080078125,5.4252610206604,7.833827972412109,-3.002328872680664
1790333689773603600,0.233603515625,5.583278179168701,7.68538761138916,-2.9879636764526367
1790333689790082300,0.250082275390625,5.4444146156311035,7.706935405731201,-2.9735984802246094
1790333689806403000,0.266403076171875,5.197812080383301,7.9846625328063965,-3.2848446369171143
1790333689822823700,0.28282373046875,4.489128112792969,8.178592681884766,-2.8155810832977295
1790333689839232800,0.299232666015625,4.383783340454102,8.197746276855469,-2.7533318996429443
1790333689855697000,0.31569677734375,4.642356872558594,8.008605003356934,-2.6839001178741455
1790333689872174300,0.33217431640625,4.965574264526367,8.01339340209961,-2.8179752826690674
1790333689888640000,0.348639892578125,4.855441093444824,8.209717750549316,-2.7772738933563232
1790333689905111000,0.365111083984375,4.771644115447998,8.195352554321289,-2.3774423599243164
1790333689921558500,0.38155859375,4.790797710418701,8.370129585266113,-2.276885747909546
1790333689937962200,0.397962158203125,4.917690277099609,8.38688850402832,-2.1356279850006104
1790333689954475300,0.414475341796875,4.896142482757568,8.588001251220703,-2.449268341064453
1790333689970917600,0.430917724609375,4.477157115936279,8.59997272491455,-2.2146365642547607
1790333689987359700,0.44735986328125,4.390965938568115,8.53293514251709,-2.1356279850006104
1790333690003820000,0.463820068359375,4.3406877517700195,8.377311706542969,-2.1811177730560303
1790333690020267000,0.48026708984375,4.501099109649658,8.377311706542969,-2.516305923461914
1790333690036780300,0.4967802734375,4.462791919708252,8.523358345031738,-2.4827871322631836
1790333690053233200,0.513233154296875,4.307168960571289,8.439560890197754,-2.276885747909546
1790333690069673700,0.529673828125,4.280832767486572,8.427590370178223,-2.22660756111145
1790333690086132200,0.54613232421875,4.266467571258545,8.374917984008789,-2.315192937850952
1790333690102598000,0.562597900390625,4.333505153656006,8.525752067565918,-2.6599581241607666
1790333690119076900,0.579076904296875,3.9384617805480957,8.530540466308594,-2.315192937850952
1790333690135513900,0.595513916015625,3.9624037742614746,8.528146743774414,-2.3774423599243164
1790333690151982000,0.611982177734375,4.022258758544922,8.439560890197754,-2.3127987384796143
1790333690168423400,0.62842333984375,4.302380561828613,8.528146743774414,-2.4588451385498047
1790333690184873000,0.644873046875,4.197035789489746,8.664615631103516,-2.343923568725586
1790333690201346300,0.66134619140625,3.9264907836914062,8.616731643676758,-2.1164743900299072
1790333690217817900,0.67781787109375,4.0078935623168945,8.5903959274292,-2.1715409755706787
1790333690234312200,0.694312255859375,4.0964789390563965,8.516175270080566,-2.207453966140747
1790333690250776300,0.7107763671875,4.2329487800598145,8.69095230102539,-2.5282769203186035
1790333690267252500,0.72725244140625,3.866635799407959,8.655038833618164,-2.1978771686553955
1790333690283761400,0.743761474609375,3.9384617805480957,8.638279914855957,-2.166752576828003
1790333690300235300,0.7602353515625,4.027047157287598,8.504204750061035,-2.099714994430542
1790333690316734700,0.776734619140625,4.316745758056641,8.56884765625,-2.3774423599243164
1790333690333204700,0.793204833984375,4.182670593261719,8.75080680847168,-2.3032219409942627
1790333690349681400,0.809681396484375,4.048594951629639,8.667010307312012,-2.121262788772583
1790333690366151400,0.8261513671875,4.141968727111816,8.580819129943848,-2.207453966140747
1790333690382622700,0.842622802734375,4.261679172515869,8.456320762634277,-2.233790159225464
1790333690399122700,0.859122802734375,4.398148536682129,8.669404029846191,-2.5234885215759277
1790333690415589600,0.875589599609375,3.907337188720703,8.652645111083984,-2.1595699787139893
1790333690432066600,0.892066650390625,4.022258758544922,8.705317497253418,-2.231395959854126
1790333690448458500,0.90845849609375,4.108449935913086,8.53293514251709,-2.1571757793426514
1790333690464953000,0.924953125,4.24970817565918,8.525752067565918,-2.31758713722229
1790333690481452300,0.941452392578125,4.156333923339844,8.736441612243652,-2.382230758666992
1790333690497913900,0.957913818359375,3.907337188720703,8.700529098510742,-2.070984363555908
1790333690514394400,0.974394287109375,4.055777549743652,8.604761123657227,-2.1954829692840576
1790333690530897700,0.990897705078125,4.106055736541748,8.449137687683105,-2.250549554824829
1790333690547378400,1.00737841796875,4.288015365600586,8.583212852478027,-2.5019407272338867
1790333690563881000,1.023880859375,3.998316764831543,8.71489429473877,-2.2601263523101807
1790333690580354000,1.04035400390625,4.000710964202881,8.671798706054688,-2.0853497982025146
1790333690596855600,1.05685546875,4.220977783203125,8.504204750061035,-2.070984363555908
1790333690613331200,1.073331298828125,4.369418144226074,8.492233276367188,-2.231395959854126
1790333690629814000,1.08981396484375,4.378994941711426,8.7268648147583,-2.4827871322631836
1790333690646288100,1.1062880859375,3.914519786834717,8.722076416015625,-2.073378562927246
1790333690662757000,1.122757080078125,4.039018154144287,8.683769226074219,-2.1499931812286377
1790333690679231500,1.1392314453125,4.180276393890381,8.482656478881836,-2.0901381969451904
1790333690695734300,1.155734375,4.417302131652832,8.588001251220703,-2.3750481605529785
1790333690712216300,1.17221630859375,4.153939723968506,8.813055992126465,-2.2577321529388428
1790333690728720100,1.18872021484375,3.950432777404785,8.7268648147583,-2.0614075660705566
1790333690745187600,1.2051875,4.125209331512451,8.554482460021973,-2.121262788772583
1790333690761678800,1.221678955078125,4.273650169372559,8.480262756347656,-2.1715409755706787
1790333690778180900,1.238180908203125,4.3406877517700195,8.75080680847168,-2.516305923461914
1790333690794653000,1.25465283203125,3.8977603912353516,8.681375503540039,-2.097320795059204
1790333690811153200,1.271153076171875,4.046200752258301,8.65743350982666,-2.169146776199341
1790333690827622700,1.28762255859375,4.089296340942383,8.470685958862305,-2.0901381969451904
1790333690844120800,1.304120849609375,4.335899353027344,8.580819129943848,-2.387019157409668
1790333690860622000,1.3206220703125,4.0533833503723145,8.738836288452148,-2.296039342880249
1790333690877079300,1.337079345703125,3.84269380569458,8.69095230102539,-2.123656988143921
1790333690893554700,1.3535546875,3.9695863723754883,8.561665534973145,-2.164358377456665
1790333690910027000,1.370027099609375,4.122815132141113,8.427590370178223,-2.2026655673980713
1790333690926500900,1.3865009765625,4.333505153656006,8.650250434875488,-2.456450939178467
1790333690942977500,1.4029775390625,3.9193081855773926,8.698134422302246,-2.1811177730560303
1790333690959451100,1.419451171875,3.885789394378662,8.652645111083984,-2.1739351749420166
1790333690975982600,1.435982666015625,3.952826976776123,8.540117263793945,-2.2457611560821533
1790333690992450300,1.4524501953125,4.141968727111816,8.56645393371582,-2.4372973442077637
1790333691008931800,1.468931884765625,4.132391929626465,8.762778282165527,-2.456450939178467
1790333691025421000,1.485421142578125,3.861847400665283,8.710105895996094,-2.276885747909546
1790333691041892600,1.501892578125,3.8810009956359863,8.619126319885254,-2.2433669567108154
1790333691058395000,1.518394775390625,4.065354347229004,8.47786808013916,-2.38462495803833
1790333691074848000,1.534847900390625,4.338293552398682,8.619126319885254,-2.669534921646118
1790333691091313400,1.5513134765625,4.079719543457031,8.607154846191406,-2.4636335372924805
1790333691107837400,1.56783740234375,3.845088005065918,8.700529098510742,-2.535459518432617
1790333691124303400,1.584303466796875,3.756502389907837,8.614337921142578,-2.4684219360351562
1790333691140795600,1.600795654296875,4.043806552886963,8.676587104797363,-2.6408045291900635
1790333691157253000,1.617253173828125,3.936067581176758,8.853757858276367,-2.5737667083740234
1790333691173714400,1.63371435546875,3.6296098232269287,8.786720275878906,-2.43011474609375
1790333691190185500,1.650185546875,3.6296098232269287,8.633491516113281,-2.454056739807129
1790333691206682600,1.6666826171875,3.7181951999664307,8.47547435760498,-2.497152328491211
1790333691223196700,1.68319677734375,3.8786067962646484,8.705317497253418,-2.806004285812378
1790333691239666200,1.699666259765625,3.6607344150543213,8.777143478393555,-2.5498247146606445
1790333691256142300,1.716142333984375,3.8546648025512695,8.746018409729004,-2.4396915435791016
1790333691272599800,1.732599853515625,3.9887399673461914,8.564059257507324,-2.389413356781006
1790333691289070000,1.749070068359375,4.098873138427734,8.556877136230469,-2.5067291259765625
1790333691305570600,1.765570556640625,3.931279182434082,8.75080680847168,-2.5977089405059814
1790333691322038800,1.782038818359375,3.6128504276275635,8.734047889709473,-2.4229321479797363
1790333691338497800,1.798497802734375,3.5482068061828613,8.743624687194824,-2.406172752380371
1790333691354968800,1.81496875,3.73016619682312,8.686163902282715,-2.367865562438965
1790333691371432400,1.831432373046875,3.8379054069519043,8.820239067077637,-2.497152328491211
1790333691387897000,1.84789697265625,3.4811692237854004,8.913613319396973,-2.33913516998291
1790333691404355300,1.864355224609375,3.272873640060425,8.860940933227539,-2.2385785579681396
1790333691420823300,1.8808232421875,3.4380736351013184,8.760383605957031,-2.2385785579681396
1790333691437329000,1.897328857421875,3.6942532062530518,8.710105895996094,-2.3774423599243164
1790333691452831700,1.912831787109375,3.804386615753174,8.939949035644531,-2.6455929279327393
1790333691469337300,1.92933740234375,3.4739866256713867,9.023746490478516,-2.425326347351074
1790333691485815000,1.94581494140625,3.4787750244140625,8.908824920654297,-2.255337953567505
1790333691502292000,1.9622919921875,3.6966474056243896,8.633491516113281,-2.1763293743133545
1790333691518792700,1.978792724609375,3.8307228088378906,8.65982723236084,-2.406172752380371
1790333691535265500,1.995265625,3.603273630142212,8.96389102935791,-2.5689783096313477
1790333691551730400,2.01173046875,3.318363666534424,8.959102630615234,-2.3104045391082764
1790333691568197600,2.02819775390625,3.423708438873291,8.798690795898438,-2.169146776199341
1790333691584692000,2.04469189453125,3.5386300086975098,8.638279914855957,-2.2242133617401123
1790333691601164800,2.061164794921875,3.818751811981201,8.796297073364258,-2.6168625354766846
1790333691617639700,2.0776396484375,3.0119056701660156,8.947132110595703,-2.5258827209472656
1790333691634143700,2.094143798828125,2.8874073028564453,8.939949035644531,-2.451662540435791
1790333691650610400,2.1106103515625,3.270479440689087,8.889671325683594,-2.2840683460235596
1790333691667075800,2.127075927734375,3.5936968326568604,8.87051773071289,-2.2912509441375732
1790333691683575300,2.1435751953125,3.5960910320281982,9.071630477905273,-2.4612393379211426
1790333691700085500,2.16008544921875,3.359065055847168,8.942343711853027,-2.2649147510528564
1790333691716584700,2.176584716796875,3.557783842086792,8.674192428588867,-2.449268341064453
1790333691733040400,2.193040283203125,3.3901896476745605,8.374917984008789,-2.6839001178741455
1790333691749484300,2.209484375,3.598485231399536,8.554482460021973,-3.069366693496704
1790333691765960000,2.2259599609375,3.821146011352539,8.595184326171875,-2.5689783096313477
1790333691782427600,2.242427734375,4.110844135284424,8.635885238647461,-2.2385785579681396
1790333691798921000,2.2589208984375,4.077325344085693,8.62630844116211,-2.1787235736846924
1790333691815443000,2.27544287109375,4.050989151000977,8.719682693481445,-2.456450939178467
1790333691831938800,2.291938720703125,3.892971992492676,9.01895809173584,-2.674323320388794
1790333691848441000,2.308441162109375,3.490746021270752,8.877699851989746,-2.31758713722229
1790333691864917200,2.324917236328125,3.8139634132385254,8.757989883422852,-2.343923568725586
1790333691881387500,2.341387451171875,4.0964789390563965,8.518569946289062,-2.3367409706115723
1790333691897853000,2.35785302734375,4.32871675491333,8.757989883422852,-2.7006595134735107
1790333691914302000,2.374302001953125,3.892971992492676,8.765172004699707,-2.3558945655822754
1790333691930805500,2.390805419921875,3.869029998779297,8.78432559967041,-2.3798365592956543
1790333691947287600,2.40728759765625,4.0294413566589355,8.614337921142578,-2.3487119674682617
1790333691963792400,2.42379248046875,4.266467571258545,8.667010307312012,-2.5689783096313477
1790333691980264700,2.4402646484375,3.9480385780334473,8.815450668334961,-2.5498247146606445
1790333691996733200,2.456733154296875,3.663128614425659,8.741230010986328,-2.3726539611816406
1790333692013214500,2.47321435546875,3.7852327823638916,8.655038833618164,-2.3487119674682617
1790333692029688800,2.489688720703125,3.8546648025512695,8.559270858764648,-2.3487119674682617
1790333692046144300,2.506144287109375,4.036623954772949,8.853757858276367,-2.559401512145996
1790333692062535200,2.52253515625,3.6727054119110107,8.825027465820312,-2.212242364883423
1790333692078995200,2.5389951171875,3.7924153804779053,8.841787338256836,-2.1308395862579346
1790333692095471600,2.5554716796875,3.713406801223755,8.664615631103516,-2.0805611610412598
1790333692111989200,2.5719892578125,3.6942532062530518,8.7484130859375,-2.3367409706115723
1790333692127503000,2.587503173828125,3.584120035171509,8.96149730682373,-2.4372973442077637
1790333692143954400,2.603954345703125,3.450044631958008,8.83699893951416,-2.0685901641845703
1790333692160440000,2.620440185546875,3.665522813796997,8.719682693481445,-2.0661959648132324
1790333692176893700,2.636893798828125,3.7397429943084717,8.585607528686523,-2.252943754196167
1790333692193226500,2.6532265625,3.7660791873931885,8.757989883422852,-2.6431987285614014
1790333692209739300,2.6697392578125,3.3710360527038574,8.87051773071289,-2.410961151123047
1790333692226246100,2.68624609375,3.4739866256713867,8.844181060791016,-2.121262788772583
1790333692242735600,2.702735595703125,3.8738183975219727,8.688557624816895,-2.1092917919158936
1790333692259266600,2.7192666015625,3.97916316986084,8.640673637390137,-2.233790159225464
1790333692275778000,2.735778076171875,3.909731388092041,8.949525833129883,-2.454056739807129
1790333692292273700,2.752273681640625,3.3470940589904785,8.913613319396973,-2.070984363555908
1790333692308766700,2.7687666015625,3.3255462646484375,8.813055992126465,-2.013523578643799
1790333692325220600,2.785220703125,3.646369218826294,8.638279914855957,-2.1571757793426514
1790333692341747500,2.80174755859375,3.914519786834717,8.729259490966797,-2.4684219360351562
1790333692358223000,2.81822314453125,3.6942532062530518,8.939949035644531,-2.3989901542663574
1790333692374715000,2.83471484375,3.603273630142212,8.822632789611816,-1.9704279899597168
1790333692391221000,2.851220947265625,3.861847400665283,8.633491516113281,-2.0207061767578125
1790333692407705900,2.867705810546875,4.041412353515625,8.542511940002441,-2.22660756111145
1790333692424201200,2.884201171875,4.027047157287598,8.87291145324707,-2.561795711517334
1790333692440668200,2.900668212890625,3.4404678344726562,8.87291145324707,-2.0685901641845703
1790333692457117200,2.9171171875,3.5242648124694824,8.889671325683594,-2.099714994430542
1790333692473622000,2.9336220703125,3.7181951999664307,8.69095230102539,-2.145204782485962
1790333692490074400,2.950074462890625,4.086902141571045,8.765172004699707,-2.3918075561523438
1790333692506570000,2.966570068359375,3.7277719974517822,8.841787338256836,-2.2625205516815186
1790333692523051000,2.983051025390625,3.3734302520751953,8.719682693481445,-2.1308395862579346
1790333692539503400,2.99950341796875,3.4117374420166016,8.674192428588867,-2.2625205516815186
1790333692556011800,3.01601171875,3.6774938106536865,8.667010307312012,-2.3104045391082764
1790333692572499700,3.032499755859375,3.7708675861358643,8.999804496765137,-2.4899697303771973
1790333692589032400,3.049032470703125,3.485957622528076,8.901641845703125,-2.0231003761291504
1790333692605475300,3.065475341796875,3.8163576126098633,8.757989883422852,-2.166752576828003
1790333692621970700,3.081970703125,3.892971992492676,8.513781547546387,-2.2912509441375732
1790333692638440700,3.098440673828125,4.2329487800598145,8.62391471862793,-2.5761611461639404
1790333692654929700,3.1149296875,4.390965938568115,8.65743350982666,-2.183511972427368
1790333692671426300,3.13142626953125,4.592078685760498,8.707711219787598,-1.9488801956176758
1790333692687874000,3.1478740234375,4.484339714050293,8.683769226074219,-1.9153614044189453
1790333692704351500,3.1643515625,4.381389141082764,8.738836288452148,-2.1164743900299072
1790333692720857300,3.180857421875,4.108449935913086,8.968679428100586,-2.513911724090576
1790333692737345500,3.197345458984375,3.5386300086975098,8.793902397155762,-2.161964178085327
1790333692753865700,3.21386572265625,3.8498764038085938,8.664615631103516,-2.1523873805999756
1790333692770371600,3.23037158203125,4.05817174911499,8.487444877624512,-2.166752576828003
1790333692786859000,3.24685888671875,4.125209331512451,8.643068313598633,-2.4660277366638184
1790333692803336700,3.263336669921875,3.6942532062530518,8.803479194641113,-2.3726539611816406
1790333692819770600,3.2797705078125,3.509899616241455,8.724471092224121,-2.1140801906585693
1790333692836240600,3.29624072265625,3.6774938106536865,8.633491516113281,-2.0805611610412598
1790333692852716500,3.312716552734375,3.9432501792907715,8.62391471862793,-2.1930887699127197
1790333692869198600,3.329198486328125,4.091690540313721,8.848969459533691,-2.4612393379211426
1790333692885663700,3.345663818359375,3.624821424484253,8.767566680908203,-2.0829553604125977
1790333692902135300,3.36213525390625,3.7277719974517822,8.688557624816895,-2.032677173614502
1790333692918631200,3.378631103515625,4.144362926483154,8.530540466308594,-2.0829553604125977
1790333692935104800,3.395104736328125,4.369418144226074,8.552088737487793,-2.209848165512085
1790333692951584300,3.411584228515625,4.094084739685059,8.820239067077637,-2.425326347351074
1790333692968100600,3.4281005859375,3.665522813796997,8.731653213500977,-2.145204782485962
1790333692984550400,3.44455029296875,3.8163576126098633,8.664615631103516,-2.161964178085327
1790333693001073700,3.46107373046875,4.043806552886963,8.588001251220703,-2.166752576828003
1790333693017576700,3.47757666015625,4.156333923339844,8.803479194641113,-2.4157495498657227
1790333693034057200,3.49405712890625,3.7852327823638916,8.908824920654297,-2.183511972427368
1790333693050466600,3.510466552734375,3.713406801223755,8.815450668334961,-1.9704279899597168
1790333693066915000,3.5269150390625,3.9600095748901367,8.664615631103516,-1.9704279899597168
1790333693083310000,3.54331005859375,4.156333923339844,8.616731643676758,-2.1978771686553955
1790333693099784700,3.55978466796875,4.084507942199707,8.87291145324707,-2.497152328491211
1790333693115230200,3.575230224609375,3.600879430770874,8.80587387084961,-2.0159177780151367
1790333693131680000,3.591679931640625,3.445256233215332,8.631096839904785,-2.0039467811584473
1790333693148126500,3.60812646484375,3.181894063949585,8.616731643676758,-2.166752576828003
1790333693164628500,3.62462841796875,3.7469255924224854,8.920795440673828,-2.3319525718688965
1790333693181104400,3.6411044921875,4.060565948486328,9.315838813781738,-2.1499931812286377
1790333693197596700,3.6575966796875,4.484339714050293,8.834604263305664,-1.778891921043396
1790333693214117600,3.67411767578125,4.932055473327637,8.188169479370117,-2.300827741622925
1790333693230584600,3.69058447265625,4.855441093444824,8.042123794555664,-2.7269957065582275
1790333693247051300,3.70705126953125,4.754884719848633,8.506598472595215,-2.964021682739258
1790333693263572700,3.72357275390625,4.201824188232422,8.822632789611816,-1.9584569931030273
1790333693280066300,3.74006640625,3.9671921730041504,8.980650901794434,-1.5682021379470825
1790333693296562200,3.756562255859375,3.909731388092041,8.908824920654297,-1.6615760326385498
1790333693313054000,3.773053955078125,3.9169139862060547,8.880094528198242,-2.078166961669922
1790333693329567500,3.7895673828125,3.7229835987091064,8.98543930053711,-2.31758713722229
1790333693346058500,3.80605859375,3.6727054119110107,8.707711219787598,-2.1284453868865967
1790333693362515500,3.822515380859375,4.122815132141113,8.38688850402832,-2.2601263523101807
1790333693378995500,3.838995361328125,4.343081951141357,8.192957878112793,-2.3271639347076416
1790333693395476200,3.855476318359375,4.2760443687438965,8.513781547546387,-2.6647465229034424
1790333693412001000,3.8720009765625,3.7014358043670654,8.631096839904785,-2.3247697353363037
1790333693428476000,3.888475830078125,3.7181951999664307,8.671798706054688,-2.2409727573394775
1790333693444962000,3.904962158203125,3.758896589279175,8.580819129943848,-2.22660756111145
1790333693461460500,3.92146044921875,4.079719543457031,8.59997272491455,-2.3343467712402344
1790333693477958100,3.937958251953125,4.230554580688477,8.834604263305664,-2.3798365592956543
1790333693494450200,3.9544501953125,3.8091750144958496,8.753201484680176,-2.008735179901123
1790333693510911500,3.970911376953125,3.801992416381836,8.681375503540039,-2.0159177780151367
1790333693527403000,3.987403076171875,3.8307228088378906,8.59997272491455,-2.2601263523101807
1790333693543879200,4.003879150390625,3.847482204437256,8.774748802185059,-2.58813214302063
1790333693560362800,4.02036279296875,3.5194764137268066,8.96149730682373,-2.3918075561523438
1790333693576854500,4.0368544921875,3.4596214294433594,8.856152534484863,-2.1092917919158936
1790333693593327600,4.05332763671875,3.6942532062530518,8.647856712341309,-2.0829553604125977
1790333693609790500,4.06979052734375,3.9815573692321777,8.544905662536621,-2.229001760482788
1790333693626270200,4.086270263671875,4.067748546600342,8.901641845703125,-2.47560453414917
1790333693642754600,4.102754638671875,3.6367924213409424,8.899248123168945,-1.9728221893310547
1790333693659259600,4.119259765625,3.7708675861358643,8.760383605957031,-1.9608511924743652
1790333693675710700,4.135710693359375,4.048594951629639,8.580819129943848,-1.98958158493042
1790333693692173800,4.152173828125,4.307168960571289,8.741230010986328,-2.255337953567505
1790333693708620000,4.1686201171875,3.8594532012939453,9.074024200439453,-2.166752576828003
1790333693725073000,4.185072998046875,3.7158010005950928,8.942343711853027,-1.8315643072128296
1790333693741548000,4.201548095703125,3.9264907836914062,8.669404029846191,-1.8363527059555054
1790333693758070500,4.218070556640625,3.9432501792907715,8.523358345031738,-1.9919757843017578
1790333693774552000,4.234552001953125,3.9839515686035156,8.927978515625,-2.3798365592956543
1790333693791033000,4.251033203125,3.5434184074401855,8.920795440673828,-1.9847931861877441
1790333693807474400,4.267474365234375,3.818751811981201,8.851364135742188,-1.9991583824157715
1790333693823988000,4.283988037109375,4.005499362945557,8.564059257507324,-1.965639591217041
1790333693840449500,4.300449462890625,4.225766181945801,8.683769226074219,-2.255337953567505
1790333693856928300,4.31692822265625,3.8522706031799316,8.858546257019043,-2.205059766769409
1790333693873434000,4.33343408203125,3.6176388263702393,8.71728801727295,-1.9823989868164062
1790333693889945000,4.349945068359375,3.756502389907837,8.578424453735352,-2.0925323963165283
1790333693906441000,4.36644091796875,3.821146011352539,8.470685958862305,-2.279279947280884
1790333693922905000,4.382905029296875,3.754108190536499,8.791508674621582,-2.6192567348480225
1790333693939429000,4.39942919921875,3.337517261505127,8.81784439086914,-2.1045033931732178
1790333693955896000,4.41589599609375,3.5170822143554688,8.7484130859375,-1.9033904075622559
1790333693972328000,4.432327880859375,3.691859006881714,8.561665534973145,-1.900996208190918
1790333693988819700,4.44881982421875,3.6822822093963623,8.614337921142578,-2.073378562927246
1790333694005303300,4.46530322265625,3.423708438873291,8.927978515625,-2.0925323963165283
1790333694021741600,4.481741455078125,3.071760892868042,8.93037223815918,-1.4700398445129395
1790333694038211600,4.498211669921875,3.1723172664642334,9.07641887664795,-1.2641384601593018
1790333694054727700,4.514727783203125,3.399766445159912,9.10993766784668,-1.2306196689605713
1790333694071193900,4.53119384765625,3.780444383621216,9.29189682006836,-1.4748282432556152
1790333694087658200,4.547658203125,3.861847400665283,9.351752281188965,-1.357512354850769
1790333694104098800,4.564098876953125,4.141968727111816,9.193734169006348,-1.2449848651885986
1790333694120565500,4.5805654296875,4.745307922363281,8.944737434387207,-1.460463047027588
1790333694137028000,4.597028076171875,5.054159641265869,8.71489429473877,-1.742978811264038
1790333694153489000,4.613489013671875,4.98472785949707,8.808267593383789,-2.1571757793426514
1790333694170003000,4.6300029296875,4.4292731285095215,8.583212852478027,-1.9057846069335938
1790333694186468900,4.64646875,4.381389141082764,8.456320762634277,-2.013523578643799
1790333694202936600,4.6629365234375,4.537012100219727,8.286332130432129,-2.205059766769409
1790333694219418000,4.679418212890625,4.474762916564941,8.274360656738281,-2.5282769203186035
1790333694235904800,4.69590478515625,3.6583402156829834,8.504204750061035,-2.360682964324951
1790333694252361000,4.71236083984375,3.2393548488616943,8.595184326171875,-1.8938134908676147
1790333694268841000,4.728841064453125,3.490746021270752,8.62630844116211,-1.8507179021835327
1790333694285319000,4.74531884765625,3.8546648025512695,8.540117263793945,-2.0805611610412598
1790333694301778700,4.76177880859375,4.256890773773193,8.83699893951416,-2.5115175247192383
1790333694318272000,4.77827197265625,3.931279182434082,8.808267593383789,-1.9776105880737305
1790333694334706000,4.794705810546875,4.015076160430908,8.779537200927734,-1.8387469053268433
1790333694351169500,4.81116943359375,4.261679172515869,8.544905662536621,-1.8195933103561401
1790333694367633400,4.82763330078125,4.496310710906982,8.5903959274292,-2.1571757793426514
1790333694384092400,4.844092529296875,4.393360137939453,8.774748802185059,-2.190694570541382
1790333694400614000,4.86061376953125,4.371812343597412,8.638279914855957,-1.8363527059555054
1790333694417086200,4.877086181640625,4.69024133682251,8.597578048706055,-1.9297266006469727
1790333694433605400,4.89360546875,4.93923807144165,8.549694061279297,-1.9560627937316895
1790333694450094800,4.9100947265625,4.93923807144165,8.89685344696045,-2.073378562927246
1790333694466573600,4.926573486328125,4.2975921630859375,8.875306129455566,-1.5107412338256836
1790333694483046100,4.943046142578125,4.168305397033691,8.892065048217773,-1.41257905960083
1790333694499567000,4.959567138671875,4.091690540313721,8.78432559967041,-1.436521053314209
1790333694516082200,4.976082275390625,4.072536945343018,8.832210540771484,-1.601720929145813
1790333694532555300,4.99255517578125,3.907337188720703,9.083600997924805,-1.7741034030914307
1790333694549055500,5.009055419921875,3.5697548389434814,8.89685344696045,-1.4772224426269531
1790333694565556700,5.025556640625,3.7852327823638916,8.681375503540039,-1.558625340461731
1790333694582013000,5.042012939453125,4.02465295791626,8.49941635131836,-1.6496049165725708
1790333694598490400,5.058490478515625,4.2760443687438965,8.722076416015625,-2.070984363555908
1790333694614996000,5.074995849609375,3.9887399673461914,8.853757858276367,-1.968033790588379
1790333694631449000,5.091448974609375,3.955221176147461,8.786720275878906,-1.7980455160140991
1790333694647978500,5.107978515625,4.1156325340271,8.453926086425781,-1.6352397203445435
1790333694664442000,5.124442138671875,4.417302131652832,8.257601737976074,-1.7764976024627686
1790333694680932400,5.140932373046875,4.4939165115356445,8.7484130859375,-2.3702597618103027
1790333694697422800,5.1574228515625,3.823540210723877,8.904036521911621,-1.946485996246338
1790333694713864400,5.173864501953125,3.869029998779297,8.786720275878906,-1.4844050407409668
1790333694730388500,5.190388427734375,4.335899353027344,8.360552787780762,-1.3431471586227417
1790333694746867200,5.2068671875,4.611232280731201,8.492233276367188,-1.9297266006469727
1790333694763364900,5.22336474609375,3.936067581176758,8.995016098022461,-2.166752576828003
1790333694779864600,5.239864501953125,3.19865345954895,8.975862503051758,-1.6304513216018677
1790333694796306200,5.25630615234375,3.378218650817871,8.65982723236084,-1.4389152526855469
1790333694812793900,5.2727939453125,3.9863457679748535,8.1139497756958,-1.4676456451416016
1790333694829279200,5.289279296875,4.6471452713012695,8.456320762634277,-2.252943754196167
1790333694845725400,5.305725341796875,3.9815573692321777,8.769960403442383,-1.9345149993896484
1790333694862219800,5.3222197265625,3.7900211811065674,8.98543930053711,-1.7357962131500244
1790333694878720300,5.33872021484375,4.07014274597168,8.652645111083984,-1.41257905960083
1790333694895207000,5.35520703125,4.817133903503418,8.516175270080566,-1.5394717454910278
1790333694911705000,5.371705078125,4.917690277099609,9.014169692993164,-1.7549498081207275
1790333694928191500,5.38819140625,4.24970817565918,9.136273384094238,-1.2090718746185303
1790333694944706800,5.404706787109375,4.039018154144287,9.069235801696777,-1.0055646896362305
1790333694961168600,5.421168701171875,4.091690540313721,8.523358345031738,-0.8834604024887085
1790333694977663200,5.437663330078125,4.299986362457275,8.815450668334961,-1.6400281190872192
1790333694994153500,5.454153564453125,3.490746021270752,8.983044624328613,-1.4269442558288574
1790333695010640100,5.47064013671875,3.3207578659057617,9.160215377807617,-1.3335703611373901
1790333695027144000,5.48714404296875,3.6774938106536865,8.796297073364258,-1.2114660739898682
1790333695043623200,5.503623046875,4.580107688903809,8.834604263305664,-1.8315643072128296
1790333695060113200,5.520113037109375,4.551377296447754,9.095572471618652,-1.946485996246338
1790333695076537300,5.536537353515625,4.168305397033691,9.023746490478516,-1.4963760375976562
1790333695093020400,5.5530205078125,4.338293552398682,8.729259490966797,-1.4772224426269531
1790333695109489000,5.569489013671875,4.750096321105957,8.288725852966309,-1.6304513216018677
1790333695126005500,5.586005615234375,4.900930881500244,8.650250434875488,-2.298433542251587
1790333695142507300,5.60250732421875,3.847482204437256,8.825027465820312,-1.7262194156646729
1790333695158983000,5.61898291015625,3.5913026332855225,8.920795440673828,-1.4053963422775269
1790333695175459600,5.63545947265625,3.8738183975219727,8.396465301513672,-1.3120225667953491
1790333695191947800,5.65194775390625,4.424484729766846,8.60236644744873,-2.33913516998291
1790333695208441000,5.668441162109375,3.778050184249878,8.815450668334961,-2.10210919380188
1790333695224918500,5.68491845703125,3.514688014984131,8.882488250732422,-1.1276689767837524
1790333695241385200,5.70138525390625,4.005499362945557,8.643068313598633,-0.7445967197418213
1790333695257887000,5.717886962890625,4.888959884643555,8.971074104309082,-1.6759412288665771
1790333695274337300,5.734337158203125,4.819528102874756,9.102754592895508,-2.056619167327881
1790333695290805500,5.750805419921875,4.206612586975098,8.774748802185059,-1.3982137441635132
1790333695307329300,5.767329345703125,4.170699596405029,8.449137687683105,-1.7262194156646729
1790333695323828000,5.783827880859375,4.211400985717773,8.465897560119629,-2.477998733520508
1790333695340328000,5.800327880859375,4.000710964202881,8.327033042907715,-2.31758713722229
1790333695356827600,5.81682763671875,4.1611223220825195,7.967903137207031,-2.0470423698425293
1790333695373292800,5.833292724609375,4.491522312164307,8.300697326660156,-2.4396915435791016
1790333695389790500,5.84979052734375,4.24970817565918,8.604761123657227,-2.1811177730560303
1790333695406264600,5.8662646484375,4.364629745483398,8.544905662536621,-1.8555063009262085
1790333695422755800,5.882755859375,4.563348293304443,8.743624687194824,-2.0614075660705566
1790333695439276800,5.89927685546875,4.201824188232422,8.607154846191406,-1.9129672050476074
1790333695455737000,5.915737060546875,4.520252704620361,8.322244644165039,-2.032677173614502
1790333695472230000,5.93222998046875,4.659116744995117,8.324639320373535,-2.367865562438965
1790333695488723700,5.9487236328125,4.23773717880249,8.14028549194336,-2.169146776199341
1790333695505204500,5.96520458984375,4.405331134796143,8.087613105773926,-2.3032219409942627
1790333695521710000,5.9817099609375,4.467580318450928,8.324639320373535,-2.449268341064453
1790333695538169300,5.99816943359375,4.477157115936279,8.396465301513672,-2.0925323963165283
1790333695554717200,6.01471728515625,4.745307922363281,8.489839553833008,-1.8770540952682495
1790333695571183900,6.031183837890625,4.60165548324585,8.667010307312012,-1.8315643072128296
1790333695587649800,6.04764990234375,4.4508209228515625,8.65743350982666,-1.6208745241165161
1790333695604144000,6.06414404296875,4.627991676330566,8.698134422302246,-1.7573440074920654
1790333695620641000,6.08064111328125,4.616020679473877,8.650250434875488,-1.7980455160140991
1790333695637136600,6.09713671875,5.085284233093262,8.69334602355957,-1.9129672050476074
1790333695653641000,6.113640869140625,5.070919036865234,8.678980827331543,-1.7741034030914307
1790333695670102300,6.130102294921875,4.95120906829834,8.611943244934082,-1.6328455209732056
1790333695686600400,6.146600341796875,5.073313236236572,8.80587387084961,-1.699883222579956
1790333695703038500,6.16303857421875,4.917690277099609,8.911218643188477,-1.5131354331970215
1790333695719502000,6.179502197265625,4.965574264526367,9.02135181427002,-1.4987702369689941
1790333695735963000,6.195962890625,4.55616569519043,8.98543930053711,-1.41257905960083
1790333695752454400,6.212454345703125,4.32871675491333,8.743624687194824,-1.501164436340332
1790333695768930300,6.228930419921875,4.333505153656006,8.80587387084961,-1.8555063009262085
1790333695785414400,6.245414306640625,3.8953661918640137,8.588001251220703,-1.745373010635376
1790333695801907700,6.26190771484375,3.9647979736328125,8.516175270080566,-1.9632453918457031
1790333695818345200,6.27834521484375,3.6990416049957275,8.621520042419434,-1.9345149993896484
1790333695834837200,6.294837158203125,3.383007049560547,8.588001251220703,-1.8579005002975464
1790333695851307300,6.311307373046875,3.3063924312591553,8.791508674621582,-2.008735179901123
1790333695867804200,6.32780419921875,3.071760892868042,8.760383605957031,-1.8962076902389526
1790333695884299500,6.344299560546875,3.1244332790374756,8.686163902282715,-1.9345149993896484
1790333695900746500,6.36074658203125,3.488351821899414,8.695740699768066,-2.094926595687866
1790333695917239600,6.377239501953125,3.780444383621216,8.911218643188477,-2.27209734916687
1790333695933707500,6.39370751953125,3.794809579849243,8.834604263305664,-1.965639591217041
1790333695950164200,6.410164306640625,4.225766181945801,8.635885238647461,-2.051830768585205
1790333695966658600,6.426658447265625,4.726154327392578,8.650250434875488,-2.3918075561523438
1790333695983137000,6.443136962890625,4.754884719848633,8.549694061279297,-2.073378562927246
1790333695999602400,6.4596025390625,4.855441093444824,8.614337921142578,-1.8938134908676147
1790333696016048400,6.47604833984375,4.548983097076416,8.597578048706055,-1.8171991109848022
1790333696032531200,6.49253125,4.230554580688477,8.506598472595215,-1.9584569931030273
1790333696048999400,6.50899951171875,4.201824188232422,8.470685958862305,-2.188300371170044
1790333696065382100,6.525382080078125,4.1395745277404785,8.506598472595215,-2.3702597618103027
1790333696081851100,6.54185107421875,4.003105163574219,8.542511940002441,-2.3942017555236816
1790333696098328000,6.558328125,4.19224739074707,8.51138687133789,-2.427720546722412
1790333696114781700,6.57478173828125,4.481945514678955,8.611943244934082,-2.513911724090576
1790333696131278000,6.591278076171875,4.395754337310791,8.631096839904785,-2.3726539611816406
1790333696147751700,6.607751708984375,4.532223701477051,8.5903959274292,-2.315192937850952
1790333696164245000,6.624244873046875,4.666299343109131,8.5903959274292,-2.451662540435791
1790333696180767200,6.640767333984375,4.474762916564941,8.65743350982666,-2.4229321479797363
1790333696197232000,6.657232177734375,4.292803764343262,8.652645111083984,-2.3965959548950195
1790333696213724000,6.673723876953125,3.971980571746826,8.681375503540039,-2.5019407272338867
1790333696230245600,6.69024560546875,3.6774938106536865,8.53293514251709,-2.4229321479797363
1790333696246735600,6.706735595703125,3.6559460163116455,8.482656478881836,-2.537853717803955
1790333696263242800,6.72324267578125,3.490746021270752,8.463502883911133,-2.4133553504943848
1790333696279724300,6.739724365234375,3.5745432376861572,8.537723541259766,-2.3535003662109375
1790333696296255500,6.75625537109375,3.5410242080688477,8.552088737487793,-2.209848165512085
1790333696312733000,6.77273291015625,3.7277719974517822,8.537723541259766,-2.31758713722229
1790333696329227300,6.789227294921875,3.8546648025512695,8.702922821044922,-2.3558945655822754
1790333696345696300,6.8056962890625,3.9815573692321777,8.616731643676758,-2.1284453868865967
1790333696362130400,6.82213037109375,4.235342979431152,8.959102630615234,-2.3582887649536133
1790333696378592800,6.8385927734375,4.079719543457031,9.157821655273438,-2.121262788772583
1790333696395053300,6.85505322265625,4.278438568115234,9.27034854888916,-2.0590133666992188
1790333696411515400,6.871515380859375,4.2544965744018555,9.016563415527344,-1.6376339197158813
1790333696427982600,6.887982666015625,4.704606533050537,8.7484130859375,-1.577778935432434
1790333696444468500,6.904468505859375,4.876988887786865,8.540117263793945,-1.4317326545715332
1790333696460932600,6.9209326171875,5.058948040008545,8.451532363891602,-1.4772224426269531
1790333696477436200,6.937436279296875,4.733336925506592,8.547300338745117,-1.5610195398330688
1790333696493912800,6.953912841796875,4.28322696685791,8.451532363891602,-1.4915876388549805
1790333696510409000,6.970408935546875,4.003105163574219,8.899248123168945,-1.8124107122421265
1790333696526908000,6.986907958984375,3.6128504276275635,9.11233139038086,-1.647210717201233
1790333696543459800,7.0034599609375,3.6320040225982666,9.536105155944824,-1.7549498081207275
1790333696559907800,7.019907958984375,3.689464807510376,9.272743225097656,-1.3479355573654175
1790333696576399000,7.036399169921875,4.355052947998047,9.059659004211426,-1.6352397203445435
1790333696592871200,7.05287109375,4.355052947998047,8.662221908569336,-1.7621324062347412
1790333696609314800,7.069314697265625,4.6255974769592285,8.20492935180664,-2.233790159225464
1790333696625811200,7.085811279296875,4.558559894561768,8.087613105773926,-2.8778305053710938
1790333696642290200,7.102290283203125,4.197035789489746,8.339004516601562,-3.339911460876465
1790333696658780700,7.11878076171875,3.4596214294433594,8.592789649963379,-3.1100680828094482
1790333696675271200,7.135271240234375,3.3231520652770996,8.453926086425781,-2.5953147411346436
1790333696691743000,7.151742919921875,3.754108190536499,8.669404029846191,-2.561795711517334
1790333696708244700,7.16824462890625,3.998316764831543,8.506598472595215,-2.054224967956543
1790333696724739800,7.18473974609375,4.541800498962402,8.635885238647461,-2.3127987384796143
1790333696741260300,7.20126025390625,4.350264549255371,8.652645111083984,-2.5306711196899414
1790333696757739000,7.217739013671875,3.861847400665283,8.825027465820312,-2.9089550971984863
1790333696774241800,7.23424169921875,3.426102638244629,8.808267593383789,-2.695871114730835
1790333696790743000,7.250742919921875,3.751713991165161,8.858546257019043,-2.542642116546631
1790333696807198200,7.2671982421875,4.010287761688232,8.667010307312012,-2.207453966140747
1790333696823663600,7.28366357421875,4.37420654296875,8.348581314086914,-2.4684219360351562
1790333696840104000,7.30010400390625,4.520252704620361,8.446743965148926,-3.2154128551483154
1790333696856599300,7.316599365234375,4.213795185089111,8.59997272491455,-3.3734302520751953
1790333696873066500,7.33306640625,3.847482204437256,8.7268648147583,-3.0573954582214355
1790333696889545500,7.34954541015625,3.823540210723877,8.676587104797363,-2.5234885215759277
1790333696906051800,7.3660517578125,4.113238334655762,8.647856712341309,-2.3942017555236816
1790333696922577200,7.3825771484375,4.122815132141113,8.71728801727295,-2.252943754196167
1790333696939050500,7.399050537109375,3.8953661918640137,8.791508674621582,-2.099714994430542
1790333696955547600,7.415547607421875,3.4548330307006836,8.453926086425781,-1.7908629179000854
1790333696972035800,7.432035888671875,3.2106244564056396,7.994239330291748,-2.073378562927246
1790333696988526800,7.44852685546875,3.1196448802948,7.7213006019592285,-2.5761611461639404
1790333697005036500,7.46503662109375,3.313575267791748,7.6782050132751465,-2.896984100341797
1790333697021499400,7.48149951171875,3.4811692237854004,7.90086555480957,-2.9520506858825684
1790333697038016000,7.49801611328125,3.550601005554199,8.219294548034668,-2.7126305103302
1790333697054476300,7.514476318359375,3.952826976776123,8.688557624816895,-2.5067291259765625
1790333697070901500,7.530901611328125,4.503493309020996,9.169792175292969,-1.821987509727478
1790333697087399200,7.547399169921875,5.032611846923828,9.184157371520996,-0.768538773059845
1790333697103869700,7.56386962890625,5.839457988739014,8.78193187713623,-0.29209262132644653
1790333697120411400,7.580411376953125,6.560112476348877,8.69095230102539,-0.6153098344802856
1790333697136860700,7.596860595703125,6.708553314208984,8.607154846191406,-0.8523358106613159
1790333697153358800,7.61335888671875,6.696582317352295,8.31985092163086,-0.7589619159698486
1790333697169889800,7.629889892578125,6.892906665802002,8.391676902770996,-1.2042834758758545
1790333697186338300,7.64633837890625,6.572083473205566,8.406042098999023,-1.7262194156646729
1790333697202818300,7.662818359375,5.980715751647949,8.063671112060547,-1.8171991109848022
1790333697219287800,7.679287841796875,5.750872611999512,7.716512203216553,-2.1571757793426514
1790333697235735300,7.6957353515625,5.233725070953369,7.644686222076416,-2.6599581241607666
1790333697252206600,7.71220654296875,4.517858505249023,8.008605003356934,-3.1723172664642334
1790333697268651300,7.7286513671875,3.485957622528076,8.125920295715332,-3.227383852005005
1790333697285187600,7.7451875,2.7892448902130127,8.355764389038086,-3.4979286193847656
1790333697301659000,7.761658935546875,2.5474305152893066,8.248024940490723,-3.737348794937134
1790333697318160100,7.77816015625,3.0310592651367188,8.037335395812988,-3.5242648124694824
1790333697334637600,7.794637451171875,4.10366153717041,7.637503623962402,-3.136404275894165
1790333697351085800,7.8110859375,5.16429328918457,7.876923561096191,-3.0526070594787598
1790333697367590400,7.82759033203125,5.638344764709473,7.948749542236328,-2.5977089405059814
1790333697384073500,7.844073486328125,5.719748020172119,7.936778545379639,-2.006340980529785
1790333697400542200,7.860542236328125,5.829881191253662,7.8314337730407715,-1.6663644313812256
1790333697417047600,7.877047607421875,5.726930618286133,8.08043098449707,-1.7741034030914307
1790333697433525000,7.89352490234375,5.236119270324707,8.128314971923828,-1.8555063009262085
1790333697450032000,7.9100322265625,4.845864295959473,8.13789176940918,-1.8914192914962769
1790333697466530800,7.92653076171875,4.702212333679199,7.876923561096191,-1.9823989868164062
1790333697483055900,7.943055908203125,4.766855716705322,7.898471355438232,-2.5977089405059814
1790333697499539200,7.959539306640625,4.434061527252197,7.836222171783447,-3.0597896575927734
1790333697515986000,7.97598583984375,4.4508209228515625,7.6997528076171875,-3.5386300086975098
1790333697532518100,7.99251806640625,4.548983097076416,7.450755596160889,-3.7253777980804443
1790333697548994600,8.00899462890625,5.207388877868652,7.402871608734131,-3.8355112075805664
1790333697565509000,8.025509033203125,5.892130374908447,7.63989782333374,-3.9240965843200684
1790333697581974800,8.041974853515624,5.999869346618652,7.7213006019592285,-3.5027170181274414
1790333697598471200,8.05847119140625,5.985504150390625,7.682993412017822,-3.205836057662964
1790333697614971600,8.0749716796875,5.880159378051758,7.343016624450684,-3.0358476638793945
1790333697631468800,8.09146875,6.095637321472168,7.371747016906738,-3.4356794357299805
1790333697647992800,8.107992919921875,5.724536418914795,7.592013359069824,-3.4524388313293457
1790333697664483000,8.124483154296875,4.977545261383057,7.8098859786987305,-3.2178070545196533
1790333697680955600,8.14095556640625,4.671087741851807,7.886500358581543,-2.9017724990844727
1790333697697450800,8.15745068359375,4.570530891418457,7.661445617675781,-2.8395233154296875
1790333697713945000,8.173945068359375,4.424484729766846,8.042123794555664,-3.093308687210083
1790333697730412800,8.190412841796874,3.8546648025512695,8.5903959274292,-2.557007312774658
1790333697746895400,8.206895263671875,3.7924153804779053,8.99740982055664,-1.5634137392044067
1790333697763370000,8.223369873046876,4.448426723480225,8.707711219787598,-0.871489405632019
1790333697779897300,8.2398974609375,5.394136428833008,8.1139497756958,-1.1659762859344482
1790333697796332800,8.256332763671875,5.480327606201172,7.60637903213501,-1.3623007535934448
1790333697812809200,8.272809326171876,5.2672438621521,7.814674377441406,-1.7094600200653076
1790333697829310000,8.28931005859375,4.632780075073242,7.826645374298096,-1.280897855758667
1790333697845780200,8.3057802734375,4.2090067863464355,7.15387487411499,-1.656787633895874
1790333697862316000,8.32231591796875,4.077325344085693,6.303933143615723,-2.853888511657715
1790333697878770400,8.3387705078125,3.8738183975219727,6.308721542358398,-4.146757125854492
1790333697895236900,8.35523681640625,2.626439332962036,6.823474884033203,-4.7405195236206055
1790333697911741400,8.371741455078125,2.3918075561523438,6.598419666290283,-4.742913722991943
1790333697928182500,8.3881826171875,4.1180267333984375,5.6910176277160645,-4.69024133682251
1790333697944655400,8.4046552734375,6.14831018447876,4.944026470184326,-5.626373767852783
1790333697961145900,8.421145751953125,7.491456985473633,4.7405195236206055,-6.581660270690918
1790333697977586000,8.4375859375,7.8529815673828125,4.529829502105713,-6.734889507293701
1790333697994082800,8.454082763671876,7.630321025848389,4.309563159942627,-6.5050458908081055
1790333698010555400,8.470555419921874,7.529764175415039,4.086902141571045,-6.584054470062256
1790333698027051800,8.4870517578125,7.6351094245910645,4.000710964202881,-6.775590896606445
1790333698043524900,8.50352490234375,7.508216381072998,3.9456443786621094,-6.888118267059326
1790333698060070700,8.520070556640626,7.637503623962402,3.797203779220581,-6.296750545501709
1790333698076566000,8.53656591796875,8.307879447937012,3.2632968425750732,-4.929661273956299
1790333698093008000,8.5530078125,9.028534889221191,2.96162748336792,-3.600879430770874
1790333698109507300,8.56950732421875,9.53849983215332,3.7229835987091064,-3.6320040225982666
1790333698126028800,8.58602880859375,9.002198219299316,4.28322696685791,-4.28322696685791
1790333698142420500,8.60242041015625,7.819462776184082,4.24970817565918,-4.565742492675781
1790333698158919000,8.6189189453125,6.469132900238037,4.201824188232422,-4.78122091293335
1790333698175375000,8.635375,6.04775333404541,4.422090530395508,-4.28322696685791
1790333698191883500,8.651883544921875,6.3973069190979,4.977545261383057,-4.395754337310791
1790333698208378400,8.66837841796875,6.746860504150391,5.188235282897949,-4.774038314819336
1790333698224877800,8.6848779296875,6.921637058258057,5.408501625061035,-5.784391403198242
1790333698241360600,8.701360595703125,7.0557122230529785,5.4659624099731445,-7.508216381072998
1790333698257834000,8.717833984375,6.382941722869873,5.145139217376709,-8.315062522888184
1790333698274362000,8.734362060546875,6.315904140472412,4.240131378173828,-6.3063273429870605
1790333698290827500,8.75082763671875,7.546523571014404,4.211400985717773,-5.3582234382629395
1790333698307316500,8.76731640625,8.250418663024902,4.620809078216553,-4.944026470184326
1790333698323792100,8.783792236328125,8.513781547546387,4.81473970413208,-4.460397720336914
1790333698340246500,8.80024658203125,7.601590633392334,4.800374507904053,-4.194641590118408
1790333698356725500,8.8167255859375,6.718130111694336,4.630385875701904,-3.687070608139038
1790333698373175600,8.833175537109375,6.619967937469482,4.671087741851807,-2.473210334777832
1790333698389656000,8.849656005859375,7.007828235626221,5.037400245666504,-1.0031704902648926
1790333698406163000,8.866162841796875,7.046135425567627,5.442020416259766,-0.24420857429504395
1790333698422616300,8.8826162109375,7.050923824310303,5.66228723526001,-0.2106897532939911
1790333698439108900,8.89910888671875,7.204153060913086,5.547365188598633,-0.706289529800415
1790333698455580000,8.915579833984374,7.158663272857666,5.384559631347656,-1.2186486721038818
1790333698472056600,8.932056640625,7.132327079772949,5.190629482269287,-1.173158884048462
1790333698488542700,8.948542724609375,7.007828235626221,5.274426460266113,-0.8236053586006165
1790333698504991500,8.964991455078126,7.513004779815674,5.585672378540039,-0.3064578175544739
1790333698521525800,8.98152587890625,8.554482460021973,5.975927352905273,0.4644751250743866
1790333698537975000,8.99797509765625,8.643068313598633,6.150704383850098,1.2449848651885986
1790333698554462000,9.0144619140625,8.032546997070312,6.200982570648193,1.45806884765625
1790333698570936800,9.030936767578124,7.15387487411499,6.349422931671143,1.2066776752471924
1790333698587381000,9.047381103515624,6.754043102264404,6.62236213684082,1.192312479019165
1790333698603883300,9.06388330078125,7.156269073486328,7.0988078117370605,1.522712230682373
1790333698620334800,9.0803349609375,7.8529815673828125,7.407660007476807,2.027888774871826
1790333698636808000,9.096807861328125,8.01339340209961,7.340622425079346,2.319981336593628
1790333698653279200,9.113279296875,7.970297336578369,7.3454108238220215,2.3774423599243164
1790333698669725400,9.129725341796876,7.608773231506348,7.474697589874268,2.425326347351074
1790333698686243000,9.1462431640625,7.304709434509277,7.376535415649414,2.3080103397369385
1790333698702746000,9.16274609375,7.680599212646484,7.469909191131592,2.166752576828003
1790333698719188500,9.1791884765625,8.101978302001953,7.362170219421387,1.8531121015548706
1790333698735686700,9.195686767578126,8.391676902770996,6.962338447570801,1.280897855758667
1790333698752180700,9.2121806640625,8.501810073852539,6.624756336212158,0.8188169598579407
1790333698768707800,9.228707763671874,8.394071578979492,6.588842868804932,1.0893617868423462
1790333698785147100,9.245147216796875,7.845798969268799,6.629544734954834,1.599326729774475
1790333698801600500,9.2616005859375,7.1706342697143555,6.821080684661865,1.843535304069519
1790333698818068500,9.278068359375,6.988674640655518,6.938396453857422,1.5849615335464478
1790333698834514400,9.294514404296875,6.50025749206543,6.806715488433838,1.434126853942871
1790333698851013000,9.31101318359375,6.5481414794921875,6.730101108551025,1.2761094570159912
1790333698867459800,9.3274599609375,5.7556610107421875,7.577648162841797,2.343923568725586
1790333698883925500,9.343925537109374,6.2392897605896,6.531382083892822,0.8379706144332886
1790333698900411400,9.360411376953126,5.834669589996338,7.06528902053833,1.0893617868423462
1790333698916857900,9.37685791015625,6.773196697235107,7.2568254470825195,1.1061211824417114
1790333698933364000,9.393364013671874,7.996633529663086,7.271190643310547,0.8954314589500427
1790333698949858000,9.409858154296876,9.294290542602539,6.88332986831665,0.8092401623725891
1790333698966322700,9.42632275390625,9.720458984375,6.212953567504883,0.22505496442317963
1790333698982801200,9.44280126953125,9.258378028869629,5.6910176277160645,-0.5817909836769104
1790333698999243500,9.459243408203125,8.585607528686523,5.339069843292236,-1.3287819623947144
1790333699015767600,9.475767578125,8.221688270568848,5.233725070953369,-1.3551181554794312
1790333699032206300,9.492206298828124,8.066065788269043,5.128379821777344,-0.8140285611152649
1790333699048688000,9.508688232421875,7.9846625328063965,6.495469093322754,0.3280056416988373
1790333699065105000,9.52510498046875,8.286332130432129,6.191405773162842,0.2585737705230713
1790333699081542400,9.54154248046875,8.358158111572266,5.305551052093506,-1.170764684677124
1790333699097993200,9.5579931640625,7.4555439949035645,7.443572998046875,0.6033388376235962
1790333699114462700,9.574462646484376,6.806715488433838,7.283161640167236,1.4700398445129395
1790333699130937900,9.590937744140625,6.665457725524902,6.557718276977539,0.10534487664699554
1790333699147438300,9.607438232421876,6.174646377563477,6.457161903381348,-0.8858546018600464
1790333699163881200,9.623881103515625,5.74129581451416,7.048529624938965,-0.2298433631658554
1790333699180364800,9.64036474609375,6.04775333404541,6.931213855743408,0.0694318488240242
1790333699196831500,9.65683154296875,6.2416839599609375,6.308721542358398,-0.05267243832349777
1790333699213300000,9.673300048828125,6.320692539215088,5.8442463874816895,-0.11252748221158981
1790333699229749000,9.6897490234375,7.072471618652344,5.815515995025635,0.05985504388809204
1790333699246191600,9.706191650390625,8.774748802185059,6.007051944732666,-0.7781155705451965
1790333699262714000,9.722714111328125,9.521739959716797,6.100425720214844,-1.1420341730117798
1790333699279149600,9.739149658203125,10.280701637268066,5.861005783081055,-1.1180921792984009
1790333699295654700,9.755654541015625,10.505757331848145,5.796362400054932,-0.8571242094039917
1790333699312155600,9.77215576171875,8.69095230102539,5.856217384338379,-0.4165911078453064
1790333699328625400,9.78862548828125,7.407660007476807,6.078877925872803,-0.47884035110473633
1790333699345118200,9.8051181640625,6.603208065032959,5.868188381195068,-0.6153098344802856
1790333699361565700,9.821565673828125,6.011840343475342,5.288791656494141,1.1899182796478271
1790333699378026200,9.838026123046875,6.303933143615723,5.839457988739014,1.6879122257232666
1790333699394524200,9.854524169921875,7.271190643310547,6.260837554931641,1.5849615335464478
1790333699410963500,9.87096337890625,7.762001991271973,6.344634532928467,1.3000515699386597
1790333699427457500,9.88745751953125,7.603984832763672,5.851428985595703,0.181959331035614
1790333699443918800,9.9039189453125,6.67982292175293,5.772420406341553,-1.0103530883789062
1790333699460382000,9.9203818359375,7.06528902053833,5.815515995025635,-1.742978811264038
1790333699476884700,9.936884765625,7.395689010620117,5.56173038482666,-2.5665841102600098
1790333699493353700,9.953353759765625,7.522581577301025,5.114014625549316,-2.8634653091430664
1790333699509842200,9.96984228515625,8.712499618530273,4.290409564971924,-1.6639702320098877
1790333699526304300,9.98630419921875,10.177751541137695,4.620809078216553,-0.3447650372982025
1790333699542782500,10.002782470703124,10.975020408630371,4.702212333679199,-0.47644615173339844
1790333699559273200,10.019273193359375,12.763489723205566,4.831499099731445,-1.1635819673538208
1790333699575774000,10.03577392578125,13.567940711975098,4.587290287017822,-1.1276689767837524
1790333699592238000,10.052238037109374,10.577583312988281,4.285621166229248,-0.5434837937355042
1790333699608701000,10.068700927734374,8.176198959350586,4.431667327880859,-0.2561795711517334
1790333699625197300,10.085197265625,7.084442615509033,4.869806289672852,-0.7972691655158997
1790333699641691100,10.101691162109375,7.383718013763428,4.505887508392334,-1.5873557329177856
1790333699658125800,10.118125732421875,6.3973069190979,4.218583583831787,-1.800439715385437
1790333699674627000,10.134626953125,5.2049946784973145,4.982333660125732,-1.259350061416626
1790333699691106800,10.15110693359375,4.268861770629883,6.871358871459961,0.12689268589019775
1790333699707603200,10.167603271484374,2.499546527862549,7.177816867828369,-0.19393034279346466
1790333699724078300,10.184078369140625,8.516175270080566,5.506663799285889,1.5849615335464478
1790333699740541000,10.200541015625,9.57201862335205,4.505887508392334,2.315192937850952
1790333699757063200,10.217063232421875,9.528923034667969,4.410119533538818,2.3487119674682617
1790333699773524000,10.23352392578125,8.710105895996094,4.623203277587891,3.4620156288146973
1790333699790020900,10.250020751953125,6.833051681518555,4.869806289672852,2.832340717315674
1790333699806491400,10.266491455078125,6.447585105895996,4.8267107009887695,0.9026140570640564
1790333699822929200,10.28292919921875,8.006210327148438,4.987122058868408,-1.656787633895874
1790333699839425300,10.29942529296875,7.309497833251953,4.292803764343262,-1.0127472877502441
1790333699855901000,10.31590087890625,7.615955829620361,4.134786128997803,1.015141487121582
1790333699872295200,10.332295166015625,9.945513725280762,4.584896087646484,3.162740468978882
1790333699888734700,10.348734619140625,10.47702693939209,5.408501625061035,3.251325845718384
1790333699905201700,10.36520166015625,9.081207275390625,5.363011837005615,2.2697031497955322
1790333699921679400,10.381679443359374,10.599130630493164,5.382165431976318,0.7829039692878723
1790333699938161000,10.398160888671875,10.086771965026855,4.565742492675781,-0.10534487664699554
1790333699954657800,10.41465771484375,8.719682693481445,4.333505153656006,-0.8619126081466675
1790333699971128000,10.431128173828125,8.820239067077637,4.197035789489746,-1.987187385559082
1790333699987597000,10.44759716796875,5.473145008087158,4.285621166229248,-1.4508862495422363
1790333700004062000,10.46406201171875,3.1268274784088135,5.564124584197998,-1.50355863571167
1790333700020526000,10.480526123046875,6.189011573791504,4.67827033996582,1.8507179021835327
1790333700037001500,10.49700146484375,10.582371711730957,5.714959621429443,2.3247697353363037
1790333700053471500,10.513471435546874,10.572794914245605,6.478709697723389,0.8307880163192749
1790333700069905700,10.52990576171875,11.405977249145508,4.802768707275391,2.691082715988159
1790333700086399200,10.546399169921875,11.595118522644043,4.371812343597412,0.9145850539207458
1790333700102847500,10.562847412109376,9.837775230407715,4.489128112792969,-0.5147533416748047
1790333700119349500,10.579349609375,8.71489429473877,4.441244125366211,-0.19153612852096558
1790333700135883000,10.595883056640625,8.695740699768066,4.479551315307617,0.4141969084739685
1790333700152322300,10.612322265625,9.399636268615723,4.321534156799316,-0.2082955539226532
1790333700168820700,10.62882080078125,9.945513725280762,4.0749311447143555,-1.5969325304031372
1790333700185288000,10.645287841796875,9.770736694335938,3.31118106842041,-2.3367409706115723
1790333700201757700,10.6617578125,7.338228225708008,3.4524388313293457,-2.612074136734009
1790333700218263000,10.678262939453125,6.7277069091796875,4.0078935623168945,-0.9241618514060974
1790333700234705000,10.694704833984375,7.6351094245910645,4.721365928649902,-1.1061211824417114
1790333700251235300,10.7112353515625,9.919178009033203,4.9368438720703125,-1.647210717201233
1790333700267672800,10.7276728515625,9.660603523254395,4.659116744995117,-0.7757213711738586
1790333700284154600,10.744154541015625,7.445967197418213,3.8953661918640137,0.304063618183136
1790333700300648200,10.760648193359375,3.9647979736328125,4.486733913421631,2.9688100814819336
1790333700317094700,10.7770947265625,5.710171222686768,5.6910176277160645,1.5179238319396973
1790333700333565400,10.7935654296875,9.332598686218262,6.890512466430664,-1.2617442607879639
1790333700350039800,10.810039794921876,9.880870819091797,5.748478412628174,-0.26096799969673157
1790333700366540300,10.826540283203125,9.385271072387695,4.127603530883789,1.8171991109848022
1790333700383067000,10.84306689453125,8.176198959350586,3.7014358043670654,1.1659762859344482
1790333700399510000,10.859510009765625,7.4316020011901855,3.7612907886505127,-3.375824451446533
1790333700415990300,10.875990234375,7.06528902053833,3.6535518169403076,-2.9089550971984863
1790333700432485400,10.8924853515625,8.497021675109863,3.5027170181274414,0.2849099934101105
1790333700448952600,10.90895263671875,9.397241592407227,3.7493197917938232,0.6512228846549988
1790333700465431600,10.925431640625,8.334216117858887,4.742913722991943,0.7206547260284424
1790333700481900500,10.941900634765625,7.474697589874268,4.503493309020996,-0.016759412363171577
1790333700498453800,10.958453857421874,5.990292549133301,3.9671921730041504,-0.5291185975074768
1790333700514913800,10.974913818359376,5.640739440917969,3.912125587463379,-1.036689281463623
1790333700531411200,10.9914111328125,5.975927352905273,4.175487995147705,-0.7996633648872375
1790333700547879200,11.007879150390625,8.106766700744629,3.6990416049957275,-0.49799394607543945
1790333700564317200,11.024317138671876,8.729259490966797,3.5673606395721436,-1.37906014919281
1790333700580811300,11.040811279296875,7.891288757324219,3.49314022064209,-1.3263877630233765
1790333700597280800,11.05728076171875,7.453149795532227,2.8131868839263916,-1.1755530834197998
1790333700613776100,11.073776123046875,5.875370979309082,2.920926094055176,-2.8778305053710938
1790333700630270500,11.0902705078125,4.364629745483398,2.717418909072876,-2.425326347351074
1790333700646750500,11.10675048828125,2.7748796939849854,3.5434184074401855,-2.6647465229034424
1790333700663260000,11.123260009765625,2.0925323963165283,3.423708438873291,-2.999934673309326
1790333700679743000,11.139742919921876,3.2824504375457764,2.738966703414917,-1.9800047874450684
1790333700696205800,11.156205810546876,3.6822822093963623,3.4356794357299805,-1.4532804489135742
1790333700712672000,11.172672119140625,3.0765492916107178,3.600879430770874,-0.8690952062606812
1790333700729171500,11.18917138671875,4.831499099731445,2.6360161304473877,-1.3287819623947144
1790333700745669400,11.20566943359375,6.861782073974609,2.250549554824829,-4.2090067863464355
1790333700762155800,11.22215576171875,7.922413349151611,1.6831238269805908,-2.942473888397217
1790333700778655200,11.2386552734375,10.721235275268555,1.699883222579956,0.524330198764801
1790333700795108900,11.25510888671875,10.105925559997559,2.231395959854126,-0.05746084079146385
1790333700811579100,11.2715791015625,9.57441234588623,1.290474772453308,0.4668693244457245
1790333700828047000,11.288047119140625,12.356474876403809,0.4884171485900879,2.784456491470337
1790333700844494000,11.304494140625,13.479355812072754,1.3335703611373901,3.88818359375
1790333700860988700,11.32098876953125,11.425130844116211,2.33913516998291,3.8067808151245117
1790333700877520100,11.33752001953125,8.832210540771484,3.490746021270752,2.2577321529388428
1790333700893961700,11.353961669921874,12.15296745300293,3.442862033843994,2.1068975925445557
1790333700910459000,11.370458984375,11.374852180480957,2.9759926795959473,4.577713489532471
1790333700926909200,11.3869091796875,10.220847129821777,2.2170307636260986,6.447585105895996
1790333700943411200,11.4034111328125,12.198457717895508,1.1180921792984009,6.782773494720459
1790333700959924500,11.419924560546875,14.417882919311523,0.011971008032560349,5.25527286529541
1790333700976402000,11.43640185546875,16.010026931762695,-0.6488286852836609,4.702212333679199
1790333700992935400,11.452935302734375,15.49527359008789,-1.070208191871643,3.821146011352539
1790333701009380400,11.46938037109375,12.775460243225098,-2.1787235736846924,3.2106244564056396
1790333701025863400,11.485863525390625,9.27034854888916,-3.138798475265503,2.403778553009033
1790333701042372900,11.502372802734374,7.898471355438232,-3.4835634231567383,1.9177556037902832
1790333701058788600,11.51878857421875,5.801150798797607,-4.077325344085693,2.5450363159179688
1790333701075203600,11.53520361328125,5.080495834350586,-5.023035049438477,3.0573954582214355
1790333701091623000,11.551622802734375,6.552929878234863,-5.870582580566406,2.4181437492370605
1790333701108099000,11.56809912109375,8.269572257995605,-6.72531270980835,1.7908629179000854
1790333701124565200,11.584565185546875,9.816226959228516,-7.208941459655762,1.0654197931289673
1790333701141016000,11.60101611328125,13.661314964294434,-30.310592651367188,-26.752809524536133
1790333701157475800,11.617475830078124,9.397241592407227,0.021547814831137657,-4.910507678985596
1790333701173845200,11.63384521484375,15.899893760681152,-5.928043365478516,2.741360902786255
1790333701190287400,11.650287353515624,15.538369178771973,-8.772355079650879,4.1611223220825195
1790333701206754600,11.666754638671875,16.560693740844727,-5.652710437774658,0.6392518281936646
1790333701223199000,11.683198974609375,12.765883445739746,-4.90571928024292,2.049436569213867
1790333701239671000,11.699671142578126,8.829815864562988,-4.908113479614258,1.4293384552001953
1790333701256113700,11.71611376953125,6.382941722869873,-3.399766445159912,1.41257905960083
1790333701272556500,11.732556640625,1.8483237028121948,-2.451662540435791,0.23702596127986908
1790333701289012000,11.749011962890625,-0.44771572947502136,-0.8403648138046265,1.2210428714752197
1790333701305484800,11.76548486328125,3.1076738834381104,-1.072602391242981,0.6224924325942993
1790333701321943600,11.781943603515625,6.617573261260986,-2.185906171798706,1.9488801956176758
1790333701338385700,11.7983857421875,10.893617630004883,-2.9496564865112305,3.1268274784088135
1790333701354825000,11.814824951171875,13.105859756469727,-3.1651346683502197,2.9328970909118652
1790333701371288000,11.8312880859375,14.896722793579102,-3.466804027557373,2.779668092727661
1790333701387725000,11.84772509765625,13.637372970581055,-4.28322696685791,1.525106430053711
1790333701404179000,11.864178955078126,14.72912883758545,-3.0406360626220703,3.4356794357299805
1790333701420652300,11.88065234375,10.103530883789062,-4.836287498474121,4.10366153717041
1790333701437095400,11.897095458984374,7.469909191131592,-4.929661273956299,1.599326729774475
1790333701453535700,11.91353564453125,5.384559631347656,-5.6191911697387695,0.10773907601833344
1790333701469972700,11.92997265625,7.441178798675537,-3.84269380569458,0.8834604024887085
1790333701486437600,11.946437744140624,3.794809579849243,-6.509834289550781,-0.9074024558067322
1790333701502877000,11.962876953125,10.697293281555176,-6.586448669433594,2.4684219360351562
1790333701519317200,11.979317138671876,6.617573261260986,-9.050082206726074,-4.707000732421875
1790333701535775500,11.995775390625,9.390059471130371,-4.508281707763672,0.7374141216278076
1790333701552172000,12.012172119140626,5.987898349761963,-8.549694061279297,-1.4221558570861816
1790333701568614100,12.0286142578125,9.251194953918457,-6.66785192489624,2.0446481704711914
1790333701585058300,12.045058349609375,7.891288757324219,-4.841075897216797,1.1061211824417114
1790333701601505300,12.06150537109375,8.678980827331543,-5.032611846923828,1.0821791887283325
1790333701617964800,12.07796484375,13.050793647766113,-2.9472622871398926,-0.9433154463768005
1790333701634410200,12.09441015625,10.606313705444336,-0.9457096457481384,-1.522712230682373
1790333701650854700,12.110854736328125,8.710105895996094,0.3280056416988373,-0.5770025849342346
1790333701667303200,12.12730322265625,16.311697006225586,0.11971008777618408,0.9696516990661621
1790333701683751400,12.14375146484375,-12.574347496032715,-30.212430953979492,-54.089805603027344
1790333701700204300,12.160204345703125,18.004396438598633,-13.529633522033691,9.737217903137207
1790333701716653800,12.17665380859375,19.424158096313477,-10.687716484069824,2.535459518432617
1790333701733132300,12.19313232421875,10.144232749938965,-19.98679542541504,-9.452308654785156
1790333701749580000,12.209580078125,-12.828132629394531,-22.323535919189453,7.060500621795654
1790333701766028000,12.226028076171875,9.459490776062012,-15.69878101348877,0.033518824726343155
1790333701782472200,12.24247216796875,4.809951305389404,-8.583212852478027,1.4413094520568848
1790333701798917400,12.25891748046875,8.621520042419434,-9.945513725280762,1.9823989868164062
1790333701815245300,12.275245361328125,32.63775634765625,-2.166752576828003,1.7812861204147339
1790333701831691000,12.29169091796875,-1.7956513166427612,-7.395689010620117,-1.1683704853057861
1790333701848136200,12.30813623046875,3.375824451446533,-5.410895824432373,-1.98958158493042
1790333701864583000,12.3245830078125,4.711789131164551,0.569819986820221,2.5713725090026855
1790333701881001500,12.34100146484375,10.376470565795898,-10.682928085327148,-11.587936401367188
1790333701896375800,12.356375732421874,-7.802703380584717,-9.428366661071777,0.43095630407333374
1790333701912629500,12.37262939453125,3.2297780513763428,-6.1267619132995605,-2.3750481605529785
1790333701928112000,12.388112060546876,6.584054470062256,-4.771644115447998,-1.824381709098816
1790333701944563700,12.404563720703125,3.066972494125366,-6.337451934814453,-2.9328970909118652
1790333701961017600,12.421017578125,8.346187591552734,-6.967126846313477,-4.1180267333984375
1790333701977502700,12.437502685546875,6.524199485778809,-7.5201873779296875,-2.1116859912872314
1790333701993954000,12.4539541015625,2.3750481605529785,-9.32302188873291,-0.3495534360408783
1790333702010408000,12.470407958984374,9.95748519897461,-9.41400146484375,-3.5625722408294678
1790333702026859000,12.48685888671875,5.556941986083984,-8.892065048217773,-1.2042834758758545
1790333702043314700,12.503314697265624,5.453991413116455,-11.204863548278809,-2.9520506858825684
1790333702059799600,12.519799560546875,6.48828649520874,-9.445125579833984,-1.6376339197158813
1790333702076250400,12.53625048828125,4.8722004890441895,-6.428431510925293,-0.9433154463768005
1790333702092739600,12.552739501953125,2.494758129119873,-9.117119789123535,0.5051765441894531
1790333702109221400,12.569221435546876,6.519411087036133,-9.17697525024414,-1.3120225667953491
1790333702125668600,12.585668701171874,6.150704383850098,-9.66539192199707,-0.11971008777618408
1790333702142114800,12.60211474609375,2.5522189140319824,-10.271124839782715,0.22505496442317963
1790333702158590500,12.618590576171876,7.864952564239502,-9.615114212036133,0.6799532771110535
1790333702175036000,12.635035888671876,4.120420932769775,-9.962273597717285,-0.7972691655158997
1790333702191481000,12.651481201171874,10.342951774597168,-1.9704279899597168,-4.151545524597168
1790333702207927600,12.667927490234375,5.918466567993164,-13.764266014099121,0.8978256583213806
1790333702224399000,12.684399169921875,4.7189717292785645,-9.129091262817383,-0.31364041566848755
1790333702240870100,12.7008701171875,2.3511061668395996,-9.071630477905273,0.26815059781074524
1790333702257346300,12.71734619140625,4.896142482757568,-7.2783732414245605,-0.7206547260284424
1790333702273843200,12.73384326171875,5.056553840637207,-8.451532363891602,-0.023942016065120697
1790333702290319000,12.750319091796875,2.7557260990142822,-8.884882926940918,-0.7230489253997803
1790333702306793500,12.76679345703125,7.340622425079346,-8.101978302001953,0.016759412363171577
1790333702323298000,12.783298095703126,4.347870349884033,-9.129091262817383,-0.7541735172271729
1790333702339773700,12.799773681640625,3.9480385780334473,-10.165780067443848,-1.0606313943862915
1790333702356269600,12.81626953125,5.018246650695801,-8.89445972442627,0.3016694188117981
1790333702372719600,12.8327197265625,4.786009311676025,-9.457097053527832,0.5506663918495178
1790333702389163300,12.849163330078126,2.4588451385498047,-9.205705642700195,-0.8403648138046265
1790333702405632500,12.865632568359375,8.580819129943848,-8.437167167663574,0.6871358752250671
1790333702422076400,12.882076416015625,5.999869346618652,-10.079588890075684,1.0965443849563599
1790333702438517200,12.898517333984374,2.983175277709961,-11.626243591308594,-0.15801730751991272
1790333702454962000,12.9149619140625,10.718840599060059,-9.950302124023438,0.4692635238170624
1790333702471441000,12.93144091796875,3.751713991165161,-8.35097599029541,-1.338358759880066
1790333702487889400,12.947889404296875,0.08858546614646912,-8.257601737976074,-3.1507694721221924
1790333702504337700,12.964337646484376,14.372392654418945,-4.537012100219727,-1.170764684677124
1790333702520786000,12.980785888671875,6.794744491577148,-5.6910176277160645,-1.070208191871643
1790333702537241900,12.997241943359375,-6.370970726013184,-5.959167957305908,-0.05027823522686958
1790333702553691600,13.013691650390625,33.19321060180664,-4.113238334655762,0.363918662071228
1790333702570142200,13.03014208984375,-15.109807014465332,-7.275979042053223,-10.144232749938965
1790333702586592800,13.0465927734375,-5.0469770431518555,-7.879317760467529,-0.4213795065879822
1790333702603069700,13.063069580078125,8.226476669311523,-6.933608055114746,0.1364694982767105
1790333702619516400,13.079516357421875,5.9974751472473145,-6.861782073974609,-1.8339585065841675
1790333702635963100,13.095963134765626,7.287950038909912,-8.987833023071289,-3.047818660736084
1790333702652451800,13.112451904296876,7.536946773529053,-7.508216381072998,-2.7437551021575928
1790333702668907300,13.1289072265625,4.141968727111816,-6.885724067687988,-1.525106430053711
1790333702685353700,13.145353759765625,8.24084186553955,-8.851364135742188,-2.279279947280884
1790333702701807900,13.161807861328125,7.419631004333496,-4.7189717292785645,0.14365209639072418
1790333702718279700,13.17827978515625,6.53377628326416,-5.990292549133301,-1.522712230682373
1790333702734768400,13.194768310546875,7.144298076629639,-7.5201873779296875,-1.6735470294952393
1790333702751220700,13.211220703125,7.754819393157959,-5.25527286529541,-1.3335703611373901
1790333702767691000,13.22769091796875,8.159439086914062,-5.5545477867126465,-1.9512743949890137
1790333702784171000,13.2441708984375,6.452373504638672,-7.003039836883545,-0.6775590777397156
1790333702800644900,13.260644775390626,7.491456985473633,-7.082048416137695,-1.678335428237915
1790333702817120300,13.277120361328125,4.8051629066467285,-6.011840343475342,-1.6136919260025024
1790333702833569300,13.2935693359375,7.850587368011475,-7.60637903213501,-2.1164743900299072
1790333702850044400,13.31004443359375,6.2416839599609375,-8.214506149291992,-1.599326729774475
1790333702866520800,13.326520751953124,7.41484260559082,-7.204153060913086,-2.1308395862579346
1790333702883001000,13.3430009765625,4.809951305389404,-6.761225700378418,-1.1659762859344482
1790333702898429200,13.35842919921875,7.187393665313721,-7.618350028991699,-1.558625340461731
1790333702914905300,13.3749052734375,7.817068576812744,-5.152322292327881,-1.1635819673538208
1790333702931376400,13.39137646484375,5.643133640289307,-6.138733386993408,-1.625662922859192
1790333702947853800,13.407853759765626,7.931990146636963,-7.422025203704834,-1.2856862545013428
1790333702964331000,13.4243310546875,7.015010833740234,-4.458003520965576,-0.912190854549408
1790333702980776000,13.44077587890625,7.465120792388916,-6.086060523986816,-1.8483237028121948
1790333702997226500,13.4572265625,7.168240070343018,-8.765172004699707,-1.0031704902648926
1790333703013695700,13.47369580078125,7.046135425567627,-6.588842868804932,-2.1787235736846924
1790333703030155500,13.490155517578126,3.3734302520751953,-5.975927352905273,-1.3766659498214722
1790333703046598000,13.506597900390625,7.857769966125488,-8.425195693969727,-2.63362193107605
1790333703063020300,13.523020263671874,6.476315498352051,-6.332663536071777,-1.6663644313812256
1790333703079490000,13.539489990234374,8.018181800842285,-6.794744491577148,-1.7094600200653076
1790333703095983600,13.555983642578125,6.342240333557129,-7.29034423828125,-1.1180921792984009
1790333703112424200,13.572424072265624,6.933608055114746,-6.576871871948242,-1.05105459690094
1790333703128863700,13.58886376953125,8.485051155090332,-5.370194435119629,-1.3886369466781616
1790333703145364000,13.605364013671876,6.141127586364746,-6.739677906036377,-1.6112977266311646
1790333703161814000,13.62181396484375,7.240066051483154,-7.218518257141113,-2.0638017654418945
1790333703178186200,13.638186279296875,7.625532627105713,-4.352658748626709,-0.304063618183136
1790333703194593500,13.654593505859374,8.015787124633789,-6.2392897605896,-1.7166426181793213
1790333703211058000,13.671057861328125,5.5329999923706055,-7.987056732177734,-0.9528923034667969
1790333703227511300,13.68751123046875,7.671022415161133,-6.909666061401367,-2.0901381969451904
1790333703243953000,13.703952880859376,4.551377296447754,-5.954379558563232,-1.6950948238372803
1790333703260393000,13.72039306640625,8.085219383239746,-7.680599212646484,-2.518700122833252
1790333703276840700,13.7368408203125,5.583278179168701,-7.627926826477051,-1.5658079385757446
1790333703293311000,13.75331103515625,7.046135425567627,-7.237671852111816,-2.741360902786255
1790333703309764000,13.76976416015625,3.9217023849487305,-6.404489517211914,-1.3287819623947144
1790333703326206500,13.78620654296875,7.266402244567871,-8.090007781982422,-2.4372973442077637
1790333703342647600,13.8026474609375,6.955155849456787,-6.651092529296875,-1.357512354850769
1790333703359123700,13.819123779296875,7.043741226196289,-6.50025749206543,-1.434126853942871
1790333703375569700,13.835569580078126,6.2392897605896,-7.848193168640137,-1.525106430053711
1790333703392054300,13.85205419921875,7.46033239364624,-6.514622688293457,-1.2641384601593018
1790333703408494800,13.868494873046876,9.469067573547363,-5.937620162963867,-0.8834604024887085
1790333703424934700,13.8849345703125,6.629544734954834,-5.671864032745361,-1.0342950820922852
1790333703441399600,13.901399658203125,6.993463039398193,-6.856993675231934,-1.5897499322891235
1790333703457868300,13.917868408203125,8.343792915344238,-5.485116004943848,-1.094150185585022
1790333703474309600,13.9343095703125,8.056488990783691,-5.398924827575684,-0.8571242094039917
1790333703490783700,13.95078369140625,5.942408561706543,-7.632715225219727,-0.5817909836769104
1790333703507227600,13.9672275390625,7.9631147384643555,-7.1921820640563965,-2.121262788772583
1790333703523676200,13.98367626953125,4.015076160430908,-6.998251438140869,-1.8531121015548706
1790333703540117000,14.000116943359375,8.283937454223633,-8.887276649475098,-2.9161376953125
1790333703556571000,14.01657080078125,6.624756336212158,-5.65031623840332,-1.139639973640442
1790333703573042700,14.033042724609375,8.269572257995605,-6.3949127197265625,-1.7812861204147339
1790333703589536800,14.049536865234375,6.536170482635498,-6.852205276489258,-1.113303780555725
1790333703605980000,14.06597998046875,7.469909191131592,-5.449203014373779,-1.2090718746185303
1790333703622420500,14.08242041015625,8.269572257995605,-5.4252610206604,-2.0590133666992188
1790333703638929400,14.098929443359374,5.995080947875977,-7.716512203216553,-0.38067805767059326
1790333703655380200,14.115380126953125,7.91283655166626,-7.438784599304199,-1.316810965538025
1790333703671850000,14.13185009765625,4.1611223220825195,-6.117185115814209,-1.6304513216018677
1790333703688311000,14.14831103515625,7.249642848968506,-8.777143478393555,-2.6815059185028076
1790333703704784600,14.16478466796875,6.550535678863525,-6.852205276489258,-2.52109432220459
1790333703721240300,14.181240234375,8.178592681884766,-6.3949127197265625,-1.9273324012756348
1790333703737717500,14.197717529296876,5.719748020172119,-7.3238630294799805,-0.7015010714530945
1790333703754187300,14.214187255859375,8.7268648147583,-6.392518520355225,-1.0342950820922852
1790333703770654000,14.230654052734375,8.662221908569336,-4.891354084014893,-0.7852981686592102
1790333703787103700,14.247103759765626,5.736507415771484,-7.510610580444336,-2.0183119773864746
1790333703803585300,14.263585205078124,7.46033239364624,-7.177816867828369,-1.8100165128707886
1790333703820025300,14.280025390625,6.983886241912842,-5.322310447692871,-1.0055646896362305
1790333703836465400,14.29646533203125,6.933608055114746,-6.670246124267578,-1.0534487962722778
1790333703852937000,14.31293701171875,7.568071365356445,-8.003816604614258,-1.6687586307525635
1790333703869409000,14.329408935546875,7.462726593017578,-6.643909931182861,-1.9297266006469727
1790333703885918500,14.34591845703125,5.102043628692627,-7.0317702293396,-1.3072341680526733
1790333703902361600,14.362361572265625,8.271966934204102,-8.169015884399414,-1.7621324062347412
1790333703918830000,14.378830078125,7.795520782470703,-4.750096321105957,-1.4915876388549805
1790333703935304400,14.395304443359375,5.705382823944092,-5.896918773651123,-1.0342950820922852
1790333703951721500,14.411721435546875,7.565677165985107,-7.304709434509277,-1.259350061416626
1790333703968191200,14.428191162109375,6.2847795486450195,-4.637568473815918,-0.9433154463768005
1790333703984641500,14.4446416015625,7.163451671600342,-6.967126846313477,-1.3407529592514038
1790333704001137000,14.461136962890626,7.529764175415039,-8.810662269592285,-2.1595699787139893
1790333704017593300,14.47759326171875,8.418013572692871,-6.833051681518555,-1.745373010635376
1790333704034060800,14.494060791015626,6.107608318328857,-6.325480937957764,-0.5817909836769104
1790333704050411000,14.510410888671874,8.537723541259766,-7.7643961906433105,-1.1109095811843872
1790333704066825000,14.526824951171875,8.243236541748047,-4.831499099731445,-2.0159177780151367
1790333704083325400,14.543325439453126,5.475539207458496,-6.5265936851501465,-0.4381389021873474
1790333704099805700,14.5598056640625,7.654263019561768,-6.957550048828125,-1.3024457693099976
1790333704116259800,14.576259765625,4.541800498962402,-5.906495571136475,-1.4077905416488647
1790333704132732700,14.592732666015625,7.594407558441162,-8.178592681884766,-1.9249382019042969
1790333704149207800,14.609207763671876,6.564900875091553,-7.433996200561523,-1.6831238269805908
1790333704165675300,14.62567529296875,8.243236541748047,-6.473921298980713,-1.5753847360610962
1790333704182139100,14.64213916015625,6.57926607131958,-6.631938934326172,-0.6631938815116882
1790333704198607600,14.658607666015625,7.82185697555542,-6.406883716583252,-1.3335703611373901
1790333704215061800,14.675061767578125,8.40843677520752,-4.745307922363281,-2.2002713680267334
1790333704231529700,14.69152978515625,5.987898349761963,-7.8314337730407715,-1.0582371950149536
1790333704248024600,14.708024658203126,7.2783732414245605,-7.723694801330566,-2.360682964324951
1790333704264487700,14.72448779296875,4.335899353027344,-6.212953567504883,-1.778891921043396
1790333704280930300,14.740930419921876,8.030152320861816,-8.995016098022461,-2.5689783096313477
1790333704297373700,14.757373779296875,6.512228488922119,-5.655104637145996,-0.4692635238170624
1790333704313825500,14.773825439453125,6.584054470062256,-5.3582234382629395,-1.3192051649093628
1790333704330322400,14.790322509765625,7.010222434997559,-7.249642848968506,-1.2832920551300049
1790333704346814200,14.806814208984376,6.229712963104248,-5.125985622406006,-1.4532804489135742
1790333704363264000,14.823263916015625,8.252813339233398,-6.830657482147217,-1.7142484188079834
1790333704379764700,14.8397646484375,7.062894821166992,-7.82185697555542,-1.7381904125213623
1790333704396236500,14.856236572265624,7.608773231506348,-4.941632270812988,-0.9409212470054626
1790333704412702500,14.872702392578125,11.662156105041504,-0.7757213711738586,1.7693150043487549
1790333704429141000,14.88914111328125,-38.89859390258789,-17.223886489868164,-2.1068975925445557
1790333704445577000,14.905576904296876,13.46020221710205,-15.5311861038208,-3.529053211212158
1790333704462011400,14.922011474609375,5.442020416259766,-7.177816867828369,-3.2561142444610596
1790333704478447600,14.938447509765625,9.612719535827637,-7.65186882019043,-3.4811692237854004
1790333704494882300,14.95488232421875,2.9759926795959473,-8.178592681884766,-3.222595453262329
1790333704511323000,14.971322998046874,1.3527239561080933,-8.540117263793945,-3.0119056701660156
1790333704527756500,14.987756591796876,8.877699851989746,-8.628703117370605,-7.68538761138916
1790333704544192300,15.004192138671876,7.857769966125488,-7.386112213134766,-1.4293384552001953
1790333704560629000,15.02062890625,30.389602661132812,-5.971138954162598,-0.608127236366272
1790333704577065700,15.037065673828126,-13.287819862365723,-6.212953567504883,6.399701118469238
1790333704593502700,15.053502685546874,7.280767440795898,-10.857705116271973,-8.884882926940918
1790333704609942500,15.069942626953125,10.453084945678711,-1.0678139925003052,7.168240070343018
1790333704626412500,15.08641259765625,18.392257690429688,-1.2449848651885986,2.8874073028564453
1790333704642852900,15.102852783203126,5.341464042663574,-15.174449920654297,-7.010222434997559
1790333704659290000,15.1192900390625,5.4228668212890625,-6.275202751159668,-2.497152328491211
1790333704675729400,15.1357294921875,5.870582580566406,-6.627150535583496,-3.378218650817871
1790333704692168200,15.152168212890626,4.323928356170654,-7.659051418304443,-2.499546527862549
1790333704708606500,15.1686064453125,4.831499099731445,-8.518569946289062,-4.065354347229004
1790333704725048300,15.18504833984375,7.718906402587891,-6.4834980964660645,-2.4420857429504395
1790333704741516300,15.201516357421875,-4.288015365600586,-10.44350814819336,-8.274360656738281
1790333704757964800,15.21796484375,0.9911994934082031,-8.719682693481445,-1.920149803161621
1790333704774400000,15.23439990234375,20.496761322021484,-9.08838939666748,-0.5267243981361389
1790333704790833000,15.2508330078125,10.474632263183594,-8.669404029846191,-2.0159177780151367
1790333704807265500,15.267265625,3.6774938106536865,-6.162675380706787,-1.9153614044189453
1790333704823694800,15.28369482421875,1.5466543436050415,-9.210494041442871,-5.238513469696045
1790333704840128000,15.3001279296875,19.86469078063965,-5.286397457122803,12.63899040222168
1790333704856562400,15.3165625,-0.2849099934101105,-3.404554843902588,-1.9776105880737305
1790333704873022000,15.33302197265625,7.704541206359863,-6.368576526641846,-2.5977089405059814
1790333704889454000,15.3494541015625,7.058106422424316,-6.064512729644775,-2.054224967956543
1790333704905864400,15.365864501953125,6.524199485778809,-2.2385785579681396,0.8571242094039917
1790333704922298400,15.38229833984375,5.34625244140625,-7.015010833740234,-0.1867477297782898
1790333704938731800,15.398731689453125,9.169792175292969,-6.715735912322998,-2.7293899059295654
1790333704955168000,15.41516796875,6.5265936851501465,-6.967126846313477,-0.7637503147125244
1790333704971598300,15.431598388671874,7.970297336578369,-7.663839817047119,-2.274491548538208
1790333704988026600,15.448026611328125,6.744466304779053,-6.797138690948486,-1.558625340461731
1790333705004484000,15.464484130859375,7.615955829620361,-6.026205539703369,-1.37906014919281
1790333705020946700,15.48094677734375,6.754043102264404,-6.665457725524902,-1.015141487121582
1790333705037376800,15.497376708984374,6.564900875091553,-6.339846134185791,-2.212242364883423
1790333705053805300,15.513805419921875,8.640673637390137,-6.3973069190979,-1.9369091987609863
1790333705070238500,15.530238525390626,3.8067808151245117,-5.899312973022461,-2.8443117141723633
1790333705086615300,15.546615234375,4.206612586975098,-1.8148049116134644,-3.222595453262329
1790333705102926800,15.5629267578125,13.328520774841309,-8.252813339233398,1.173158884048462
1790333705119426600,15.579426513671875,2.9328970909118652,-9.452308654785156,-1.8267759084701538
1790333705135857200,15.595857177734375,7.218518257141113,-9.047688484191895,-1.0295066833496094
1790333705152288000,15.6122880859375,5.410895824432373,-6.509834289550781,-1.3263877630233765
1790333705168719400,15.62871923828125,14.659696578979492,-7.187393665313721,-1.115697979927063
1790333705185095000,15.645094970703125,9.639056205749512,-6.481103897094727,-0.6200982332229614
1790333705201557800,15.661557861328125,7.398083209991455,-6.737283706665039,-1.5322890281677246
1790333705218021000,15.678021240234376,6.998251438140869,-7.972691535949707,-2.5737667083740234
1790333705234504700,15.694504638671875,7.0317702293396,-6.586448669433594,-1.0558429956436157
1790333705250971100,15.71097119140625,5.647922039031982,-6.66785192489624,-1.53707754611969
1790333705267408100,15.727408203125,4.335899353027344,-7.556100368499756,-1.889025092124939
1790333705283872300,15.743872314453125,7.673416614532471,-5.446808815002441,-1.2042834758758545
1790333705300340500,15.760340576171876,6.7277069091796875,-6.845022678375244,-1.158793568611145
1790333705316829000,15.776828857421876,6.651092529296875,-7.51779317855835,-2.2601263523101807
1790333705333274400,15.7932744140625,10.019734382629395,-6.497863292694092,-0.8092401623725891
1790333705349737200,15.8097373046875,5.906495571136475,-7.1921820640563965,-2.607285737991333
1790333705366229500,15.8262294921875,6.244078159332275,-7.762001991271973,-1.316810965538025
1790333705382665000,15.8426650390625,8.094796180725098,-6.943184852600098,-2.013523578643799
1790333705399099600,15.859099609375,4.046200752258301,-6.63433313369751,-1.9033904075622559
1790333705415534000,15.8755341796875,10.36449909210205,-5.817910194396973,0.6607996821403503
1790333705431997000,15.891996826171875,6.627150535583496,-6.098031520843506,-2.0925323963165283
1790333705448431000,15.90843115234375,6.641515731811523,-6.236895561218262,-2.1715409755706787
1790333705464866000,15.924865966796874,7.86734676361084,-7.271190643310547,-1.015141487121582
1790333705481300700,15.94130078125,4.876988887786865,-7.297526836395264,-1.946485996246338
1790333705497741300,15.9577412109375,4.019864559173584,-7.534552574157715,-1.6136919260025024
1790333705514173700,15.974173583984374,7.196970462799072,-10.007762908935547,0.14844051003456116
1790333705530605800,15.990605712890625,7.094019412994385,-8.554482460021973,-0.31364041566848755
1790333705547039500,16.00703955078125,7.184999465942383,-6.9240312576293945,-1.7046716213226318
1790333705563507000,16.0235068359375,5.035006046295166,-7.558494567871094,-2.5474305152893066
1790333705579934000,16.039933837890626,6.567295074462891,-8.305485725402832,-1.0247182846069336
1790333705596362200,16.0563623046875,7.759607791900635,-4.8267107009887695,-1.072602391242981
1790333705612821500,16.072821533203125,7.692570209503174,-9.308655738830566,-0.12449848651885986
1790333705629251000,16.0892509765625,2.032677173614502,-7.615955829620361,-2.6791117191314697
1790333705645677800,16.105677734375,8.698134422302246,-8.573636054992676,-0.4812345504760742
1790333705662105600,16.122105712890626,6.495469093322754,-6.01423454284668,-2.609679937362671
1790333705678535200,16.13853515625,7.350199222564697,-5.494692802429199,-5.135562419891357
1790333705694966000,16.154966064453124,7.65186882019043,-6.282385349273682,-4.225766181945801
1790333705711401500,16.1714013671875,7.9415669441223145,-6.615179061889648,-0.043095629662275314
1790333705727837400,16.18783740234375,4.716577529907227,-8.044517517089844,-2.1308395862579346
1790333705744275200,16.204275146484374,5.932831764221191,-5.834669589996338,-1.9153614044189453
1790333705760707800,16.220707763671875,6.962338447570801,-6.449979305267334,-1.5658079385757446
1790333705777142500,16.237142578125,4.089296340942383,-5.74129581451416,-1.259350061416626
1790333705793575700,16.25357568359375,9.636661529541016,-6.641515731811523,-3.4596214294433594
1790333705810041900,16.270041748046875,7.886500358581543,-6.521805286407471,-2.9257144927978516
1790333705826478300,16.286478271484373,8.678980827331543,-6.629544734954834,-4.017470359802246
1790333705842913500,16.30291357421875,8.813055992126465,-7.714118003845215,-1.2976573705673218
1790333705859378000,16.3193779296875,5.015852451324463,-8.370129585266113,-0.07661445438861847
1790333705875809800,16.335809814453125,1.8602946996688843,-15.847221374511719,-0.7948749661445618
1790333705892243500,16.352243408203126,0.849941611289978,-10.08198356628418,1.0582371950149536
1790333705908676900,16.3686767578125,6.687005519866943,-8.039729118347168,-1.8914192914962769
1790333705924992800,16.38499267578125,5.954379558563232,-6.0405707359313965,-0.8978256583213806
1790333705941432300,16.401432373046877,3.531447410583496,-6.959944248199463,-2.1930887699127197
1790333705957867000,16.417866943359375,7.264008045196533,-6.643909931182861,-0.8379706144332886
1790333705974297600,16.434297607421875,10.723628997802734,-6.761225700378418,-0.8236053586006165
1790333705990736100,16.450736083984374,2.43011474609375,-9.397241592407227,-2.4013843536376953
1790333706007167200,16.467167236328127,3.533841609954834,-7.927201747894287,-1.7262194156646729
1790333706023598300,16.483598388671876,3.620033025741577,-7.110779285430908,-0.8786720037460327
1790333706040060000,16.500059814453124,8.315062522888184,-6.04775333404541,-1.8363527059555054
1790333706056518100,16.51651806640625,6.962338447570801,-7.0772600173950195,-1.235408067703247
1790333706072917800,16.532917724609376,5.006275653839111,-7.493851184844971,-2.075772762298584
1790333706089346600,16.5493466796875,9.042900085449219,-5.834669589996338,-0.7158663272857666
1790333706105813000,16.56581298828125,3.780444383621216,-7.079654216766357,-2.5450363159179688
1790333706122250800,16.582250732421876,9.011775016784668,-5.188235282897949,-0.07900865375995636
1790333706138685400,16.598685546875,8.470685958862305,-7.393294811248779,0.33758243918418884
1790333706155121700,16.61512158203125,6.402095317840576,-6.835445880889893,-1.1875240802764893
1790333706171558000,16.631557861328126,7.146692276000977,-7.687781810760498,-1.7046716213226318
1790333706187993000,16.6479931640625,8.516175270080566,-6.619967937469482,-1.2617442607879639
1790333706204403500,16.664403564453124,5.406107425689697,-7.623138427734375,-2.2194249629974365
1790333706220833000,16.6808330078125,6.938396453857422,-6.9695210456848145,-1.4245500564575195
1790333706237245000,16.697244873046873,5.492298603057861,-7.103596210479736,-0.9241618514060974
1790333706253712100,16.713712158203126,3.1507694721221924,-6.9455790519714355,-1.7525556087493896
1790333706270141000,16.730140869140627,7.625532627105713,-5.837063789367676,-1.2473790645599365
1790333706286605300,16.746605224609375,7.752425193786621,-6.957550048828125,-0.8547300100326538
1790333706303062000,16.76306201171875,6.8043212890625,-7.489062786102295,-1.479616641998291
1790333706319500800,16.779500732421877,10.6709566116333,-6.8162922859191895,-0.7781155705451965
1790333706335931600,16.795931640625,6.754043102264404,-8.006210327148438,-1.7717092037200928
1790333706352454100,16.8124541015625,6.564900875091553,-6.766014099121094,-1.5466543436050415
1790333706368884000,16.828884033203124,8.473079681396484,-7.6782050132751465,-0.8259995579719543
1790333706385316000,16.845316162109373,9.0859956741333,-7.47230339050293,-0.23702596127986908
1790333706401746400,16.861746337890626,9.543288230895996,-6.967126846313477,-2.4636335372924805
1790333706418178600,16.878178466796875,7.390900611877441,-7.694964408874512,-1.843535304069519
1790333706434610700,16.894610595703124,6.452373504638672,-10.65898609161377,-1.3407529592514038
1790333706451041800,16.911041748046873,8.355764389038086,-9.998186111450195,-0.40701428055763245
1790333706467474200,16.92747412109375,9.20091724395752,-5.801150798797607,-2.2840683460235596
1790333706483911400,16.943911376953125,4.127603530883789,-8.705317497253418,-1.7477672100067139
1790333706500343300,16.96034326171875,3.141192674636841,-8.858546257019043,-0.6320692300796509
1790333706516776000,16.97677587890625,5.949591159820557,-7.287950038909912,0.5626373887062073
1790333706533107000,16.99310693359375,8.801085472106934,-7.347805023193359,-2.75812029838562
1790333706549532000,17.009531982421876,10.043676376342773,-6.538564682006836,-2.5067291259765625
1790333706565963000,17.025962890625,6.251260757446289,-5.559336185455322,-1.8914192914962769
1790333706582392300,17.042392333984374,4.946420669555664,-4.663905143737793,-2.382230758666992
1790333706598852900,17.058852783203125,5.669469833374023,-3.1723172664642334,-1.2330138683319092
1790333706615286500,17.07528662109375,4.558559894561768,-1.3982137441635132,-5.008669853210449
1790333706631718400,17.091718505859376,6.854599475860596,-1.5921441316604614,-1.1827356815338135
1790333706648150800,17.10815087890625,13.407529830932617,-3.7684733867645264,0.7829039692878723
1790333706664582000,17.124581787109374,15.071499824523926,-5.590460777282715,0.43335050344467163
1790333706681013200,17.14101318359375,10.790667533874512,-5.822698593139648,0.35434186458587646
1790333706697444600,17.157444580078124,7.115567684173584,-5.537788391113281,-1.4317326545715332
1790333706713874400,17.17387451171875,4.721365928649902,-5.188235282897949,-4.067748546600342
1790333706730311000,17.190310791015627,3.3423056602478027,-3.1076738834381104,-1.3670891523361206
1790333706746740500,17.206740478515623,3.7469255924224854,-3.7253777980804443,-1.048660397529602
1790333706763172400,17.22317236328125,7.156269073486328,-4.086902141571045,-1.802833914756775
1790333706779605500,17.23960546875,8.214506149291992,-4.098873138427734,-1.9297266006469727
1790333706796036000,17.2560361328125,7.0772600173950195,-5.015852451324463,-2.3535003662109375
1790333706812468700,17.27246875,9.552865028381348,-8.724471092224121,-3.823540210723877
1790333706828903200,17.288903076171874,8.101978302001953,-11.496956825256348,-2.7772738933563232
1790333706845367800,17.305367919921874,3.5434184074401855,-9.976638793945312,0.05267243832349777
1790333706861804800,17.3218046875,13.24472427368164,-9.174580574035645,-1.5514427423477173
1790333706878241000,17.338240966796874,8.073247909545898,-10.002974510192871,-3.8786067962646484
1790333706894677800,17.354677734375,5.74129581451416,-6.71334171295166,-2.7533318996429443
1790333706911113700,17.37111376953125,1.745373010635376,-3.421314239501953,-3.4356794357299805
1790333706927455500,17.38745556640625,5.937620162963867,-6.8593878746032715,1.0558429956436157
1790333706943857700,17.403857666015625,12.770671844482422,-8.576030731201172,-3.421314239501953
1790333706960294400,17.42029443359375,8.149862289428711,-8.355764389038086,-1.8124107122421265
1790333706975753700,17.435753662109374,5.564124584197998,-9.294290542602539,-1.5394717454910278
1790333706992193000,17.452193115234376,-0.10055647045373917,-4.637568473815918,-0.5913678407669067
1790333707008631000,17.468631103515627,9.215282440185547,-5.817910194396973,-2.6024973392486572
1790333707025067500,17.485067626953125,5.161899089813232,-6.40927791595459,-2.2242133617401123
1790333707041503700,17.501503662109375,8.585607528686523,-8.001421928405762,-1.1324573755264282
1790333707057942000,17.51794189453125,11.32457447052002,-10.589553833007812,-2.212242364883423
1790333707074380500,17.534380615234376,13.663708686828613,-8.473079681396484,-1.1444283723831177
1790333707090855200,17.550855224609375,11.133037567138672,-5.841852188110352,-2.140416383743286
1790333707107296300,17.567296142578126,1.2186486721038818,-4.927267074584961,1.2210428714752197
1790333707123733500,17.5837333984375,5.0685248374938965,-7.735665798187256,-0.7206547260284424
1790333707140171300,17.600171142578127,7.115567684173584,-6.916848659515381,-0.9672574996948242
1790333707156608000,17.61660791015625,7.86734676361084,-6.8809356689453125,-0.47165772318840027
1790333707173052700,17.633052734375,6.189011573791504,-7.486668586730957,-1.6496049165725708
1790333707189488400,17.64948828125,6.133944988250732,-8.470685958862305,0.2777273952960968
1790333707205817300,17.6658173828125,6.042964935302734,-10.24000072479248,2.2409727573394775
1790333707222207500,17.68220751953125,11.068394660949707,-12.610260009765625,0.7733271718025208
1790333707238643500,17.6986435546875,14.867992401123047,-8.528146743774414,-0.8259995579719543
1790333707255081700,17.715081787109376,8.29830265045166,-6.196194171905518,-2.942473888397217
1790333707271524000,17.731524169921876,-0.5219359993934631,-2.8874073028564453,1.1061211824417114
1790333707287964200,17.747964111328123,8.123526573181152,-5.762843608856201,-1.0606313943862915
1790333707304405000,17.764405029296874,8.611943244934082,-8.437167167663574,-0.7254431247711182
1790333707320843500,17.780843505859377,5.094861030578613,-7.68538761138916,-1.699883222579956
1790333707337311000,17.79731103515625,4.78122091293335,-7.16584587097168,-2.9520506858825684
1790333707353750000,17.81375,6.196194171905518,-5.954379558563232,-2.166752576828003
1790333707370186500,17.8301865234375,4.223371982574463,-7.117961883544922,-1.113303780555725
1790333707386624300,17.846624267578125,3.5003228187561035,-6.584054470062256,-1.867477297782898
1790333707403061800,17.863061767578124,7.687781810760498,-8.432378768920898,-1.8148049116134644
1790333707419499500,17.87949951171875,4.302380561828613,-7.762001991271973,-0.9576807022094727
1790333707435937000,17.89593701171875,5.1810526847839355,-5.394136428833008,-2.8203697204589844
1790333707452376600,17.91237646484375,7.572859764099121,-5.96874475479126,-2.2840683460235596
1790333707468823300,17.9288232421875,5.2049946784973145,-8.418013572692871,-2.3965959548950195
1790333707485264600,17.9452646484375,6.828263282775879,-7.613561630249023,-1.3192051649093628
1790333707501739500,17.961739501953126,6.943184852600098,-7.271190643310547,-1.2737152576446533
1790333707518180600,17.9781806640625,3.794809579849243,-6.445190906524658,-0.912190854549408
1790333707534619000,17.994618896484376,6.878541469573975,-8.362946510314941,-1.0342950820922852
1790333707551059000,18.011058837890626,2.2625205516815186,-8.796297073364258,-1.5466543436050415
1790333707567497000,18.0274970703125,6.588842868804932,-8.80587387084961,-2.1595699787139893
1790333707583996000,18.043995849609374,5.856217384338379,-9.782708168029785,-0.8188169598579407
1790333707600433000,18.060432861328124,3.488351821899414,-9.619902610778809,0.9768342971801758
1790333707616869000,18.076869140625,6.564900875091553,-7.273584842681885,-1.678335428237915
1790333707633309700,18.093309814453125,6.524199485778809,-8.949525833129883,-2.7269957065582275
1790333707649749000,18.1097490234375,-3.9695863723754883,-4.168305397033691,-5.779603004455566
1790333707666186200,18.126186279296874,6.557718276977539,-8.358158111572266,-4.393360137939453
1790333707682624000,18.1426240234375,2.849100112915039,-6.797138690948486,-3.8714241981506348
1790333707699061500,18.1590615234375,4.400542736053467,-6.75883150100708,-1.3886369466781616
1790333707715502000,18.175502197265626,7.4316020011901855,-8.056488990783691,-2.3942017555236816
1790333707731935000,18.19193505859375,7.058106422424316,-7.122750282287598,-1.4317326545715332
1790333707748400600,18.208400634765624,4.788403511047363,-7.158663272857666,-0.40222588181495667
1790333707764864800,18.22486474609375,8.743624687194824,-7.642292022705078,-0.3208230137825012
1790333707781328100,18.241328125,6.277596950531006,-6.598419666290283,-1.2306196689605713
1790333707797778200,18.257778076171874,4.405331134796143,-8.604761123657227,-2.873042106628418
1790333707814216200,18.27421630859375,8.372523307800293,-6.801927089691162,-4.264073371887207
1790333707830684400,18.290684326171874,2.300827741622925,-6.1315507888793945,-0.40222588181495667
1790333707847125800,18.307125732421873,9.20091724395752,-8.607154846191406,-0.2992752194404602
1790333707863564000,18.32356396484375,6.121973514556885,-9.313444137573242,1.944091796875
1790333707880006000,18.340005859375,3.248931646347046,-7.433996200561523,0.031124621629714966
1790333707896480500,18.35648046875,3.5218706130981445,-7.41484260559082,-0.15083470940589905
1790333707912922400,18.37292236328125,7.51779317855835,-7.529764175415039,-0.7852981686592102
1790333707929363500,18.389363525390625,5.384559631347656,-7.362170219421387,-1.0031704902648926
1790333707945818600,18.405818603515623,6.6846113204956055,-7.857769966125488,-0.3878606855869293
1790333707962319400,18.4223193359375,6.658275127410889,-7.587224960327148,-1.7860745191574097
1790333707978787800,18.438787841796874,7.6111674308776855,-2.9065608978271484,-0.5722141861915588
1790333707995225600,18.4552255859375,9.418789863586426,-7.694964408874512,-2.382230758666992
1790333708011665200,18.4716650390625,11.080365180969238,-6.339846134185791,-2.0039467811584473
1790333708028105200,18.488105224609374,6.229712963104248,-6.392518520355225,-1.7980455160140991
1790333708044544500,18.50454443359375,6.2632317543029785,-5.683835029602051,-1.4939818382263184
1790333708060985000,18.520985107421875,5.315127849578857,-4.551377296447754,-0.16759411990642548
1790333708077421800,18.537421875,1.766920804977417,-5.616796970367432,-2.056619167327881
1790333708093846000,18.553845947265625,15.516820907592773,-5.322310447692871,0.004788403399288654
1790333708110287600,18.57028759765625,4.350264549255371,-3.7229835987091064,-0.3232172429561615
1790333708126729500,18.5867294921875,7.287950038909912,-5.106832027435303,-0.0933738648891449
1790333708143167200,18.603167236328126,9.133879661560059,-10.912771224975586,-3.136404275894165
1790333708159581000,18.619580810546875,5.449203014373779,-10.539276123046875,-1.6639702320098877
1790333708176018700,18.636018798828125,11.010933876037598,-10.790667533874512,-1.0199298858642578
1790333708192456000,18.6524560546875,12.370840072631836,-7.462726593017578,0.19632454216480255
1790333708208898000,18.66889794921875,4.771644115447998,-5.937620162963867,-0.8786720037460327
1790333708225335000,18.6853349609375,7.474697589874268,-6.461950302124023,-0.6153098344802856
1790333708241771800,18.701771728515624,6.988674640655518,-7.3669586181640625,-0.768538773059845
1790333708258207000,18.71820703125,9.50737476348877,-7.8314337730407715,1.2449848651885986
1790333708274675500,18.734675537109375,-5.118803024291992,-7.117961883544922,-18.114530563354492
1790333708291109000,18.751109130859376,1.6663644313812256,-4.458003520965576,-1.5107412338256836
1790333708307543300,18.767543212890626,9.560047149658203,-5.0469770431518555,-2.183511972427368
1790333708323997400,18.78399755859375,5.513846397399902,-6.370970726013184,-0.5051765441894531
1790333708340431000,18.80043115234375,9.08838939666748,-7.228095054626465,-3.8091750144958496
1790333708356862500,18.816862548828126,6.323086738586426,-7.201758861541748,-1.6711528301239014
1790333708373297400,18.83329736328125,8.429984092712402,-5.70777702331543,-0.20350714027881622
1790333708389729800,18.849729736328126,5.568912982940674,-5.559336185455322,-0.8595184087753296
1790333708406161700,18.86616162109375,7.620744228363037,-6.536170482635498,-2.315192937850952
1790333708422594600,18.882594482421876,8.616731643676758,-6.0190229415893555,-1.237802267074585
1790333708439029800,18.89902978515625,6.811503887176514,-6.378153324127197,-1.4460978507995605
1790333708455471400,18.915471435546873,5.054159641265869,-0.4405331015586853,1.1013327836990356
1790333708471905500,18.931905517578127,13.510479927062988,-5.832275390625,-1.216254472732544
1790333708488341000,18.948341064453125,9.531316757202148,-14.03959846496582,-4.606443881988525
1790333708504776700,18.964776611328126,13.328520774841309,-14.906299591064453,-6.904877662658691
1790333708521209900,18.9812099609375,9.071630477905273,-9.916783332824707,-1.2114660739898682
1790333708537640200,18.99764013671875,12.770671844482422,-10.249577522277832,3.3231520652770996
1790333708554073000,19.014072998046874,-17.968482971191406,-9.804255485534668,-36.049495697021484
1790333708570535000,19.030534912109374,13.917494773864746,-1.8626888990402222,-7.168240070343018
1790333708586968000,19.046968017578124,9.897629737854004,-6.296750545501709,-9.519346237182617
1790333708603397400,19.0633974609375,-10.156203269958496,-5.750872611999512,-6.67982292175293
1790333708619828200,19.079828125,-8.671798706054688,-5.501875400543213,0.6703764796257019
1790333708636261000,19.09626123046875,13.508086204528809,-3.5721490383148193,9.064447402954102
1790333708652696300,19.1126962890625,4.264073371887207,-6.447585105895996,0.22026655077934265
1790333708669130800,19.129130859375,12.507309913635254,-3.4380736351013184,-4.410119533538818
1790333708685564000,19.14556396484375,4.793191909790039,-2.1045033931732178,0.8212111592292786
1790333708702002200,19.162002197265625,6.339846134185791,-1.161187767982483,-2.3247697353363037
1790333708718435300,19.178435302734375,-1.6280571222305298,-1.6950948238372803,-0.6009446382522583
1790333708734869800,19.194869873046876,-0.22744916379451752,-3.780444383621216,-1.256955862045288
1790333708751307000,19.21130712890625,8.317456245422363,-2.494758129119873,0.811634361743927
1790333708767744800,19.227744873046873,6.471527099609375,-1.2761094570159912,0.49559974670410156
1790333708784182300,19.244182373046876,10.81460952758789,-8.451532363891602,0.7445967197418213
1790333708800619500,19.26061962890625,19.519926071166992,-16.007633209228516,-3.6727054119110107
1790333708817086200,19.277086181640627,4.290409564971924,-6.133944988250732,-0.48602294921875
1790333708833526800,19.29352685546875,2.0661959648132324,-21.923704147338867,-5.839457988739014
1790333708849964500,19.309964599609376,8.683769226074219,-5.497087001800537,-1.7142484188079834
1790333708866405400,19.3264052734375,5.118803024291992,-8.202534675598145,-2.2840683460235596
1790333708882873000,19.342873046875,3.9193081855773926,-7.771578788757324,-3.222595453262329
1790333708899344100,19.35934423828125,7.934384346008301,-6.5050458908081055,-2.5977089405059814
1790333708915780900,19.37578076171875,5.147533416748047,-8.063671112060547,-3.620033025741577
1790333708932244200,19.392244140625,5.102043628692627,-6.861782073974609,-2.5498247146606445
1790333708948689700,19.408689697265626,5.6191911697387695,-6.208165168762207,-2.8107926845550537
1790333708965127700,19.425127685546876,3.315969467163086,-8.17141056060791,-2.1140801906585693
1790333708981561000,19.44156103515625,6.232107162475586,-7.673416614532471,-2.6862943172454834
1790333708997995500,19.45799560546875,6.8162922859191895,-7.479485988616943,-2.5929205417633057
1790333709014435600,19.474435546875,4.541800498962402,-8.054094314575195,-2.8658595085144043
1790333709030877200,19.490877197265625,4.307168960571289,-8.219294548034668,-2.889801502227783
1790333709047310600,19.507310546875,5.384559631347656,-7.501033782958984,-3.7253777980804443
1790333709063775000,19.52377490234375,2.056619167327881,-9.363722801208496,-2.1930887699127197
1790333709080246800,19.540246826171874,7.438784599304199,-7.90086555480957,-1.1348515748977661
1790333709096681000,19.556680908203123,3.825934410095215,-8.396465301513672,-2.123656988143921
1790333709113118700,19.57311865234375,3.050212860107422,-8.24084186553955,-1.9776105880737305
1790333709129554200,19.58955419921875,-4.651933670043945,-8.724471092224121,-3.825934410095215
1790333709145989000,19.605989013671874,3.8786067962646484,-9.32302188873291,-3.8498764038085938
1790333709162424600,19.622424560546875,6.399701118469238,-12.358869552612305,0.5937620401382446
1790333709178858800,19.638858642578125,6.9024834632873535,-8.669404029846191,-4.266467571258545
1790333709195301400,19.65530126953125,3.909731388092041,-8.406042098999023,-1.920149803161621
1790333709211600400,19.671600341796875,6.1770405769348145,-6.354211330413818,-0.9385270476341248
1790333709228036000,19.6880361328125,6.756437301635742,-7.249642848968506,-3.3255462646484375
1790333709244470300,19.70447021484375,3.737348794937134,-9.011775016784668,-1.7908629179000854
1790333709260902700,19.720902587890624,4.02465295791626,-10.007762908935547,-2.365471363067627
1790333709277339100,19.737339111328126,8.65743350982666,-9.074024200439453,-4.285621166229248
1790333709293775000,19.753775146484376,1.8962076902389526,-8.93037223815918,-3.529053211212158
1790333709310244000,19.770244140625,4.422090530395508,-7.101202011108398,-4.671087741851807
1790333709326680800,19.786680908203124,6.655880928039551,-8.197746276855469,-2.8395233154296875
1790333709343116800,19.80311669921875,1.3072341680526733,-5.2049946784973145,-3.6367924213409424
1790333709359553800,19.8195537109375,8.518569946289062,-5.169081687927246,-2.6144683361053467
1790333709375989200,19.8359892578125,5.91128396987915,-4.747702121734619,-3.706224203109741
1790333709392425200,19.85242529296875,4.709394931793213,-7.884106159210205,-1.1109095811843872
1790333709408860700,19.868860595703126,4.02465295791626,-8.508993148803711,-3.3734302520751953
1790333709425293000,19.88529296875,2.1811177730560303,-7.156269073486328,-3.383007049560547
1790333709441733400,19.9017333984375,4.477157115936279,-4.608838081359863,-0.7015010714530945
1790333709458167000,19.9181669921875,7.469909191131592,-3.60566782951355,-3.7445313930511475
1790333709474603000,19.93460302734375,4.216189384460449,-4.003105163574219,-1.8171991109848022
1790333709491035600,19.95103564453125,4.49870491027832,-2.6671407222747803,-1.6974890232086182
1790333709507469300,19.96746923828125,3.095702886581421,-35.0870246887207,-14.425065040588379
1790333709523904000,19.983904052734374,3.1028854846954346,-14.937424659729004,-7.594407558441162
1790333709540341800,20.000341796875,3.9408559799194336,-11.72201156616211,-3.136404275894165
1790333709556809200,20.016809326171874,5.530605792999268,-8.463502883911133,-2.607285737991333
1790333709573243600,20.03324365234375,3.5889084339141846,-7.503427982330322,-1.9249382019042969
1790333709589681000,20.049680908203126,5.987898349761963,-7.884106159210205,-2.030282974243164
1790333709606120200,20.0661201171875,3.442862033843994,-7.7883381843566895,-2.9089550971984863
1790333709622559500,20.0825595703125,1.6711528301239014,-8.882488250732422,-1.9129672050476074
1790333709638995500,20.098995361328125,4.343081951141357,-9.452308654785156,-3.179499864578247
1790333709655432700,20.1154326171875,2.9903578758239746,-10.256759643554688,-3.3423056602478027
1790333709671869700,20.13186962890625,5.166687488555908,-9.083600997924805,-3.4404678344726562
1790333709688316700,20.148316650390626,10.340557098388672,-3.8738183975219727,-6.8043212890625
1790333709704754400,20.16475439453125,1.9943699836730957,-2.3918075561523438,-4.039018154144287
1790333709721194200,20.1811943359375,1.192312479019165,-15.308526039123535,1.3287819623947144
1790333709737633500,20.197633544921874,4.707000732421875,-7.979874134063721,-2.6575639247894287
1790333709754072800,20.21407275390625,8.650250434875488,-10.014945983886719,-3.181894063949585
1790333709770509800,20.230509765625,6.495469093322754,-10.24239444732666,-1.4173674583435059
1790333709786945300,20.2469453125,3.0765492916107178,-7.204153060913086,-3.3518824577331543
1790333709803409400,20.263409423828126,3.406949043273926,-5.003881454467773,-2.9305028915405273
1790333709819844000,20.279843994140624,5.135562419891357,-10.163386344909668,-3.8977603912353516
1790333709836278000,20.296278076171873,4.264073371887207,-5.008669853210449,-2.693476915359497
1790333709852711700,20.312711669921875,5.975927352905273,-9.672574996948242,-4.3861775398254395
1790333709869148200,20.329148193359377,1.6304513216018677,-5.633556365966797,-3.1004912853240967
1790333709885584600,20.345584716796875,5.04218864440918,-7.445967197418213,-3.6798880100250244
1790333709902030600,20.362030517578123,6.71334171295166,-7.647080421447754,-4.199429988861084
1790333709918496000,20.37849609375,4.666299343109131,-9.332598686218262,-2.8634653091430664
1790333709934940000,20.39493994140625,4.738125324249268,-7.989450931549072,-3.8762125968933105
1790333709951374000,20.4113740234375,5.868188381195068,-7.9631147384643555,-3.423708438873291
1790333709967814400,20.427814453125,2.7700912952423096,-6.871358871459961,-3.713406801223755
1790333709984257800,20.4442578125,1.900996208190918,-5.171475887298584,-3.2345664501190186
1790333710000679000,20.460678955078127,-8.123526573181152,-13.139378547668457,-0.9265560507774353
1790333710017170200,20.477170166015625,5.3342814445495605,-6.610390663146973,-2.913743495941162
1790333710033605600,20.493605712890623,4.867412090301514,-11.073183059692383,-5.403713226318359
1790333710050068000,20.51006787109375,5.063736438751221,-9.363722801208496,-6.107608318328857
1790333710066468600,20.526468505859373,3.93367338180542,-7.63989782333374,-4.182670593261719
1790333710082826000,20.542825927734373,4.426878929138184,-9.222464561462402,-3.514688014984131
1790333710099244000,20.559244140625,0.6057330369949341,-6.821080684661865,-3.292027235031128
1790333710115712300,20.575712158203125,3.098097085952759,-10.716446876525879,-2.7892448902130127
1790333710132148200,20.592148193359375,5.07570743560791,-7.491456985473633,-3.265691041946411
1790333710148583400,20.60858349609375,3.3949780464172363,-8.209717750549316,-2.542642116546631
1790333710165016300,20.625016357421874,3.713406801223755,-9.289502143859863,-3.4332852363586426
1790333710181475800,20.641475830078125,6.189011573791504,-8.638279914855957,-3.708618402481079
1790333710197940000,20.65793994140625,3.157952070236206,-9.308655738830566,-4.086902141571045
1790333710214432000,20.674431884765625,3.4524388313293457,-9.002198219299316,-3.0550012588500977
1790333710230897700,20.690897705078125,3.756502389907837,-8.209717750549316,-3.4117374420166016
1790333710247339300,20.70733935546875,1.8100165128707886,-7.036558628082275,-1.647210717201233
1790333710263767600,20.723767578125,3.514688014984131,-8.133103370666504,-2.959233283996582
1790333710280196400,20.7401962890625,5.434837818145752,-8.89685344696045,-3.3949780464172363
1790333710296656100,20.75665625,3.5410242080688477,-9.41400146484375,-2.853888511657715
1790333710313121800,20.773121826171874,3.24414324760437,-8.777143478393555,-3.2632968425750732
1790333710329604000,20.78960400390625,5.279214859008789,-8.7484130859375,-3.7708675861358643
1790333710346061600,20.8060615234375,2.118868589401245,-9.299078941345215,-3.509899616241455
1790333710362527700,20.82252783203125,3.950432777404785,-8.018181800842285,-2.403778553009033
1790333710378961700,20.838961669921876,4.2090067863464355,-8.882488250732422,-3.5266590118408203
1790333710395398400,20.8553984375,2.250549554824829,-7.398083209991455,-2.0590133666992188
1790333710411832000,20.87183203125,6.521805286407471,-7.38132381439209,-2.873042106628418
1790333710428290800,20.888290771484375,3.6367924213409424,-9.528923034667969,-4.189853191375732
1790333710444732400,20.904732421875,2.6575639247894287,-8.389283180236816,-3.1052796840667725
1790333710461170400,20.92117041015625,4.824316501617432,-8.554482460021973,-3.1316158771514893
1790333710477608000,20.93760791015625,2.3056161403656006,-8.281543731689453,-2.7892448902130127
1790333710494073000,20.954072998046875,2.2649147510528564,-7.287950038909912,-0.8140285611152649
1790333710510507800,20.9705078125,7.189787864685059,-7.673416614532471,-2.2888567447662354
1790333710526943200,20.986943115234375,4.7189717292785645,-9.488221168518066,-2.832340717315674
1790333710543406000,21.003406005859375,2.8107926845550537,-9.227252960205078,-3.2632968425750732
1790333710559865600,21.019865478515626,7.017405033111572,-9.502586364746094,-3.114856481552124
1790333710576300500,21.036300537109376,4.620809078216553,-9.816226959228516,-3.5721490383148193
1790333710592745500,21.052745361328125,3.294421434402466,-8.635885238647461,-3.507505416870117
1790333710609207300,21.069207275390625,4.527435302734375,-8.310274124145508,-2.6886885166168213
1790333710625704000,21.085703857421876,2.8826189041137695,-6.888118267059326,-2.1739351749420166
1790333710642138600,21.102138671875,1.8100165128707886,-7.771578788757324,-2.8347349166870117
1790333710658624800,21.118624755859376,5.743690013885498,-7.630321025848389,-3.3446998596191406
1790333710675082800,21.135082763671875,4.050989151000977,-9.095572471618652,-2.0853497982025146
1790333710691548400,21.15154833984375,2.58813214302063,-9.23443603515625,-3.3446998596191406
1790333710708005400,21.16800537109375,6.897695064544678,-9.44991397857666,-2.9975404739379883
1790333710724461600,21.184461669921873,4.388571739196777,-10.038887977600098,-3.4308910369873047
