time,seconds_elapsed,z,y,x
1790341541105217300,0.14321728515625,7.036558628082275,8.037335395812988,-2.3319525718688965
1790341541121658000,0.159658203125,6.9240312576293945,7.979874134063721,-2.209848165512085
1790341541138126000,0.1761259765625,6.952761650085449,7.838616371154785,-2.0446481704711914
1790341541154620000,0.192619873046875,6.900089263916016,7.687781810760498,-1.9847931861877441
1790341541171089700,0.209089599609375,6.495469093322754,7.534552574157715,-1.8555063009262085
1790341541187587600,0.225587646484375,6.366182327270508,7.515398979187012,-1.867477297782898
1790341541204061000,0.24206103515625,5.947196960449219,7.453149795532227,-2.2577321529388428
1790341541220532000,0.258531982421875,5.655104637145996,7.422025203704834,-2.6671407222747803
1790341541237031400,0.275031494140625,5.51624059677124,7.457938194274902,-2.849100112915039
1790341541253503200,0.291503173828125,5.243301868438721,7.6111674308776855,-2.8562827110290527
1790341541269927000,0.307927001953125,5.1116204261779785,7.666234016418457,-2.738966703414917
1790341541286395100,0.32439501953125,5.118803024291992,7.692570209503174,-2.52109432220459
1790341541302860800,0.34086083984375,5.585672378540039,7.6351094245910645,-2.319981336593628
1790341541319298800,0.357298828125,6.030993938446045,7.4555439949035645,-2.363077163696289
1790341541335762400,0.373762451171875,6.502651691436768,7.1490864753723145,-2.499546527862549
1790341541352251600,0.390251708984375,6.476315498352051,7.024587631225586,-2.652775526046753
1790341541368743200,0.4067431640625,6.294356346130371,7.067683219909668,-2.80361008644104
1790341541385204700,0.423204833984375,6.205770969390869,7.230489253997803,-2.7054479122161865
1790341541401695200,0.4396953125,6.179434776306152,7.299921035766602,-2.6240451335906982
1790341541418093600,0.456093505859375,5.736507415771484,7.826645374298096,-2.4013843536376953
1790341541434583300,0.472583251953125,5.702988624572754,8.044517517089844,-2.3056161403656006
1790341541451042800,0.489042724609375,5.702988624572754,7.9631147384643555,-2.1787235736846924
1790341541467505000,0.5055048828125,5.861005783081055,7.7763671875,-1.9297266006469727
1790341541483991800,0.52199169921875,6.023811340332031,7.589619159698486,-1.7262194156646729
1790341541500452600,0.53845263671875,5.779603004455566,7.266402244567871,-1.702277421951294
1790341541516957000,0.55495703125,5.5976433753967285,7.086836814880371,-1.8171991109848022
1790341541533417700,0.571417724609375,5.439626216888428,6.957550048828125,-2.011129379272461
1790341541549879300,0.58787939453125,5.5545477867126465,6.936002254486084,-2.142810583114624
1790341541566398200,0.604398193359375,5.614402770996094,6.892906665802002,-1.9752163887023926
1790341541582860000,0.620860107421875,5.623979568481445,6.983886241912842,-1.7956513166427612
1790341541599354000,0.63735400390625,5.746084213256836,6.998251438140869,-1.6879122257232666
1790341541615841500,0.653841552734375,5.966350555419922,7.007828235626221,-1.4724340438842773
1790341541632302000,0.670302001953125,6.5481414794921875,6.777985095977783,-1.0127472877502441
1790341541648791000,0.686791015625,6.605602264404297,6.732495307922363,-0.7326257228851318
1790341541665249000,0.7032490234375,6.524199485778809,7.029376029968262,-0.5937620401382446
1790341541681741000,0.719740966796875,6.119579315185547,7.354987621307373,-0.7254431247711182
1790341541698203000,0.736202880859375,6.007051944732666,7.709329605102539,-1.290474772453308
1790341541714663000,0.752662841796875,6.325480937957764,7.898471355438232,-1.4987702369689941
1790341541731123200,0.769123291015625,6.754043102264404,7.996633529663086,-1.3623007535934448
1790341541747581200,0.785581298828125,7.134721279144287,8.061277389526367,-0.9792284965515137
1790341541764138500,0.802138427734375,7.046135425567627,8.001421928405762,-0.8212111592292786
1790341541780598000,0.818597900390625,6.251260757446289,8.044517517089844,-0.5841852426528931
1790341541797058600,0.83505859375,5.535394191741943,8.070854187011719,-0.4572925269603729
1790341541813494800,0.851494873046875,5.396530628204346,7.943961143493652,-0.48602294921875
1790341541829956000,0.8679560546875,5.446808815002441,7.491456985473633,-0.6751648783683777
1790341541846440700,0.884440673828125,5.389348030090332,7.33583402633667,-0.7948749661445618
1790341541862925000,0.900925048828125,5.140350818634033,7.3693528175354,-1.094150185585022
1790341541879381500,0.917381591796875,4.9368438720703125,7.400477409362793,-1.3958195447921753
1790341541895871700,0.933871826171875,4.881777286529541,7.46033239364624,-1.3862427473068237
1790341541912333800,0.950333740234375,5.403713226318359,7.860164165496826,-1.3910311460494995
1790341541928825900,0.966825927734375,5.683835029602051,8.001421928405762,-1.292868971824646
1790341541945289700,0.983289794921875,6.191405773162842,7.675810813903809,-0.7996633648872375
1790341541961750800,0.999750732421875,5.779603004455566,7.357381820678711,-0.2825157940387726
1790341541978213600,1.016213623046875,5.1595048904418945,7.362170219421387,-0.2777273952960968
1790341541994675000,1.032675048828125,4.398148536682129,7.704541206359863,-0.7733271718025208
1790341542011184600,1.0491845703125,4.364629745483398,7.927201747894287,-1.1252747774124146
1790341542027647700,1.065647705078125,4.771644115447998,8.099584579467773,-1.5466543436050415
1790341542044110300,1.0821103515625,5.449203014373779,8.180987358093262,-1.7573440074920654
1790341542060561200,1.09856103515625,5.717353820800781,8.185775756835938,-1.659181833267212
1790341542077067300,1.1150673828125,5.779603004455566,8.226476669311523,-1.6328455209732056
1790341542093517000,1.13151708984375,5.600037574768066,8.29590892791748,-1.656787633895874
1790341542110055400,1.148055419921875,5.295974254608154,8.487444877624512,-1.3910311460494995
1790341542126553000,1.164552978515625,5.015852451324463,8.678980827331543,-1.0845733880996704
1790341542143022000,1.18102197265625,5.135562419891357,8.793902397155762,-1.216254472732544
1790341542159498000,1.197498046875,5.276820659637451,8.69334602355957,-1.6352397203445435
1790341542175957200,1.213957275390625,5.274426460266113,8.341399192810059,-1.745373010635376
1790341542192417000,1.2304169921875,4.862623691558838,8.061277389526367,-1.7908629179000854
1790341542208873500,1.24687353515625,4.479551315307617,8.147468566894531,-1.702277421951294
1790341542225372400,1.263372314453125,4.120420932769775,8.29590892791748,-1.577778935432434
1790341542241879000,1.279879150390625,4.0964789390563965,8.418013572692871,-1.479616641998291
1790341542258349000,1.29634912109375,4.3861775398254395,8.286332130432129,-1.5490485429763794
1790341542274805200,1.31280517578125,4.991910457611084,8.02536392211914,-1.656787633895874
1790341542291261700,1.32926171875,5.920860767364502,7.869740962982178,-1.7142484188079834
1790341542307740200,1.345740234375,6.605602264404297,7.90086555480957,-1.6927006244659424
1790341542324193800,1.36219384765625,6.888118267059326,8.133103370666504,-1.577778935432434
1790341542340648400,1.3786484375,6.607996463775635,8.212111473083496,-1.3886369466781616
1790341542357130200,1.395130126953125,5.95677375793457,8.274360656738281,-1.113303780555725
1790341542373629200,1.411629150390625,5.384559631347656,8.35336971282959,-1.1994950771331787
1790341542390127600,1.428127685546875,5.370194435119629,8.291120529174805,-1.3000515699386597
1790341542406603800,1.444603759765625,5.52821159362793,8.032546997070312,-1.4317326545715332
1790341542423095600,1.461095458984375,5.647922039031982,7.931990146636963,-1.3479355573654175
1790341542439593000,1.477593017578125,5.530605792999268,7.970297336578369,-1.1252747774124146
1790341542456046600,1.494046630859375,5.39174222946167,8.034940719604492,-1.0031704902648926
1790341542472579000,1.5105791015625,5.351040840148926,8.001421928405762,-0.8786720037460327
1790341542489053700,1.5270537109375,5.432443618774414,7.929595947265625,-0.727837324142456
1790341542505510100,1.54351025390625,5.480327606201172,7.936778545379639,-0.7182605266571045
1790341542522015000,1.560014892578125,5.339069843292236,7.975085735321045,-0.6799532771110535
1790341542538512000,1.576511962890625,5.367800235748291,7.996633529663086,-0.7781155705451965
1790341542555002600,1.593002685546875,5.590460777282715,7.965508937835693,-0.8978256583213806
1790341542571457800,1.609457763671875,6.141127586364746,7.943961143493652,-1.0965443849563599
1790341542587958500,1.62595849609375,6.196194171905518,7.987056732177734,-1.2018892765045166
1790341542604495400,1.642495361328125,6.1530985832214355,8.018181800842285,-1.2282254695892334
1790341542620982500,1.658982421875,5.6910176277160645,8.154650688171387,-1.3096283674240112
1790341542637468200,1.67546826171875,5.501875400543213,8.257601737976074,-1.2976573705673218
1790341542653951000,1.691950927734375,5.432443618774414,8.20732307434082,-1.1755530834197998
1790341542670420200,1.708420166015625,5.360617637634277,8.164227485656738,-1.2258312702178955
1790341542686874600,1.72487451171875,5.372588634490967,8.075642585754395,-1.3455413579940796
1790341542703325000,1.741324951171875,5.410895824432373,7.898471355438232,-1.3958195447921753
1790341542719781600,1.75778173828125,5.30076265335083,7.836222171783447,-1.4676456451416016
1790341542736236800,1.77423681640625,5.037400245666504,7.738059997558594,-1.4939818382263184
1790341542752695000,1.790695068359375,4.850652694702148,7.714118003845215,-1.5490485429763794
1790341542769091600,1.807091552734375,4.850652694702148,7.824251174926758,-1.699883222579956
1790341542785588000,1.823587890625,5.027823448181152,7.972691535949707,-1.764526605606079
1790341542802153200,1.8401533203125,5.228936672210693,7.999027729034424,-1.6831238269805908
1790341542818608400,1.8566083984375,5.451597213745117,8.092401504516602,-1.4269442558288574
1790341542835094800,1.8730947265625,5.4444146156311035,8.070854187011719,-1.3000515699386597
1790341542851582000,1.88958203125,5.2911858558654785,7.999027729034424,-1.1779472827911377
1790341542868039000,1.906038818359375,5.082890033721924,7.898471355438232,-1.213860273361206
1790341542884529000,1.92252880859375,4.932055473327637,7.879317760467529,-1.2090718746185303
1790341542900987100,1.938987060546875,4.850652694702148,7.884106159210205,-1.0893617868423462
1790341542917474000,1.95547412109375,4.908113479614258,7.888894557952881,-1.0055646896362305
1790341542933934300,1.971934326171875,4.987122058868408,7.73087739944458,-0.828393816947937
1790341542950390800,1.988390869140625,5.56173038482666,7.467514991760254,-0.6033388376235962
1790341542966880000,2.0048798828125,5.604825973510742,7.24485445022583,-0.5363011956214905
1790341542983334400,2.02133447265625,5.4228668212890625,6.818686485290527,-1.0223240852355957
1790341542999813600,2.037813720703125,5.430049419403076,6.605602264404297,-1.216254472732544
1790341543016270300,2.054270263671875,5.518634796142578,6.428431510925293,-1.5179238319396973
1790341543032726300,2.070726318359375,5.65031623840332,6.670246124267578,-1.8555063009262085
1790341543049081600,2.08708154296875,6.0836663246154785,6.88332986831665,-1.6950948238372803
1790341543065495800,2.103495849609375,7.024587631225586,7.132327079772949,-0.9983820915222168
1790341543081955300,2.119955322265625,7.287950038909912,7.3238630294799805,-0.5219359993934631
1790341543098441500,2.13644140625,6.718130111694336,7.489062786102295,-0.016759412363171577
1790341543114830300,2.152830322265625,5.549759387969971,7.496245384216309,0.24899697303771973
1790341543131164000,2.169163818359375,5.063736438751221,7.580042362213135,0.33758243918418884
1790341543147620600,2.18562060546875,4.845864295959473,8.022970199584961,0.44771572947502136
1790341543164106000,2.20210595703125,4.616020679473877,8.248024940490723,0.3471592366695404
1790341543180560100,2.21856005859375,4.402936935424805,8.497021675109863,0.10295066982507706
1790341543197016000,2.23501611328125,5.092466831207275,8.42040729522705,0.002394201699644327
1790341543213474800,2.251474853515625,6.1530985832214355,8.11634349822998,-0.06464344263076782
1790341543229928700,2.2679287109375,7.532158374786377,7.254431247711182,-0.033518824726343155
1790341543246413000,2.2844130859375,7.829039573669434,6.538564682006836,-0.1149216815829277
1790341543262868000,2.300867919921875,7.436390399932861,5.693411827087402,-0.4213795065879822
1790341543279321300,2.3173212890625,6.6391215324401855,5.305551052093506,-1.070208191871643
1790341543295720400,2.333720458984375,6.418854713439941,5.355829238891602,-1.5059528350830078
1790341543312173600,2.350173583984375,7.773972988128662,5.633556365966797,-1.534683346748352
1790341543328629200,2.366629150390625,8.530540466308594,5.683835029602051,-1.01753568649292
1790341543345110800,2.38311083984375,7.8314337730407715,5.408501625061035,-0.4118026793003082
1790341543361565000,2.39956494140625,5.480327606201172,5.0254292488098145,-0.24899697303771973
1790341543378023400,2.4160234375,4.359841346740723,4.955997467041016,-0.2777273952960968
1790341543394480600,2.432480712890625,3.6559460163116455,5.643133640289307,-0.5051765441894531
1790341543410970400,2.448970458984375,4.211400985717773,6.0621185302734375,-0.47884035110473633
1790341543427425500,2.465425537109375,5.875370979309082,5.990292549133301,-0.33758243918418884
1790341543443880400,2.48188037109375,7.496245384216309,5.70777702331543,-0.5410895943641663
1790341543460269600,2.49826953125,8.303091049194336,5.542576789855957,-0.6607996821403503
1790341543476723700,2.5147236328125,9.20091724395752,5.442020416259766,-1.0462661981582642
1790341543493234200,2.531234130859375,9.50498104095459,5.386953830718994,-1.4053963422775269
1790341543509734700,2.547734619140625,10.141838073730469,5.20978307723999,-1.8100165128707886
1790341543526186500,2.5641865234375,10.484209060668945,4.884171485900879,-2.315192937850952
1790341543542690300,2.580690185546875,10.256759643554688,4.742913722991943,-2.3942017555236816
1790341543559145200,2.597145263671875,9.246406555175781,4.766855716705322,-2.274491548538208
1790341543575602400,2.6136025390625,8.743624687194824,4.8267107009887695,-2.0183119773864746
1790341543592085500,2.63008544921875,8.798690795898438,4.812345504760742,-1.6328455209732056
1790341543608544500,2.64654443359375,8.848969459533691,4.98472785949707,-1.8602946996688843
1790341543625003000,2.6630029296875,10.405200958251953,6.9910688400268555,1.5825673341751099
1790341543641462300,2.679462158203125,9.801861763000488,8.020575523376465,4.019864559173584
1790341543657922000,2.695922119140625,8.841787338256836,7.757213592529297,2.1978771686553955
1790341543674380800,2.712380859375,7.975085735321045,7.637503623962402,0.6200982332229614
1790341543690837800,2.728837646484375,6.086060523986816,6.45476770401001,-2.427720546722412
1790341543707326200,2.745326171875,4.987122058868408,5.839457988739014,-4.19224739074707
1790341543723777500,2.761777587890625,4.721365928649902,5.351040840148926,-5.116408824920654
1790341543740163000,2.7781630859375,4.771644115447998,4.771644115447998,-4.513070106506348
1790341543756615000,2.794614990234375,5.202600479125977,4.699818134307861,-2.9305028915405273
1790341543773066800,2.811066650390625,5.477933406829834,4.955997467041016,-1.6136919260025024
1790341543789479200,2.827479248046875,5.698200225830078,5.628767967224121,-0.8403648138046265
1790341543805932300,2.843932373046875,5.688623428344727,6.672640323638916,0.49559974670410156
1790341543822419000,2.8604189453125,5.700594425201416,6.871358871459961,1.2234370708465576
1790341543838897400,2.8768974609375,4.683058738708496,6.517016887664795,2.0829553604125977
1790341543855353600,2.893353515625,4.448426723480225,5.494692802429199,2.9089550971984863
1790341543871814000,2.90981396484375,5.628767967224121,5.580883979797363,2.5330653190612793
1790341543888270800,2.926270751953125,6.801927089691162,5.904101371765137,0.9002198576927185
1790341543904728800,2.942728759765625,7.089231014251709,5.932831764221191,0.49799394607543945
1790341543921183500,2.95918359375,7.299921035766602,6.098031520843506,0.8236053586006165
1790341543937638700,2.975638671875,8.250418663024902,5.758055210113525,0.6440402865409851
1790341543954092300,2.99209228515625,8.341399192810059,5.365406036376953,0.4357447028160095
1790341543970543000,3.008543212890625,8.212111473083496,5.190629482269287,-0.36152446269989014
1790341543987024000,3.02502392578125,7.977479934692383,5.374982833862305,-0.7589619159698486
1790341544003475000,3.041474853515625,7.675810813903809,5.714959621429443,-1.0295066833496094
1790341544019925200,3.05792529296875,7.3669586181640625,6.189011573791504,-0.33279404044151306
1790341544036431600,3.074431640625,7.3454108238220215,6.392518520355225,0.0694318488240242
1790341544052883200,3.09088330078125,7.469909191131592,6.567295074462891,0.20350714027881622
1790341544069330400,3.107330322265625,7.694964408874512,6.665457725524902,-0.26336219906806946
1790341544085813000,3.12381298828125,7.90086555480957,6.751648902893066,-1.2186486721038818
1790341544102262800,3.1402626953125,7.8098859786987305,6.605602264404297,-2.2242133617401123
1790341544118716200,3.156716064453125,7.934384346008301,6.53377628326416,-2.5043349266052246
1790341544135166500,3.17316650390625,8.037335395812988,6.643909931182861,-0.8427590131759644
1790341544151583000,3.1895830078125,8.35097599029541,6.718130111694336,0.33997663855552673
1790341544168033000,3.206032958984375,8.525752067565918,6.296750545501709,1.6879122257232666
1790341544184482000,3.22248193359375,8.451532363891602,5.4875102043151855,1.922544002532959
1790341544200964600,3.238964599609375,7.644686222076416,5.293580055236816,2.166752576828003
1790341544217411000,3.2554111328125,6.011840343475342,5.348646640777588,2.5474305152893066
1790341544233919700,3.271919677734375,5.303156852722168,5.303156852722168,2.5330653190612793
1790341544250370300,3.288370361328125,4.788403511047363,5.374982833862305,2.6839001178741455
1790341544266822400,3.304822509765625,4.819528102874756,5.317522048950195,2.516305923461914
1790341544283200800,3.32120068359375,5.011064052581787,4.972756862640381,2.2361843585968018
1790341544299650800,3.33765087890625,5.523423194885254,4.460397720336914,1.9919757843017578
1790341544316134000,3.3541337890625,6.4164605140686035,4.307168960571289,1.9081788063049316
1790341544332616000,3.370615966796875,6.560112476348877,4.072536945343018,1.4772224426269531
1790341544349069300,3.3870693359375,8.197746276855469,3.6559460163116455,0.9050082564353943
1790341544365557800,3.403557861328125,8.111555099487305,3.3063924312591553,0.2992752194404602
1790341544382014700,3.4200146484375,8.71728801727295,2.6240451335906982,-0.6655880808830261
1790341544398505700,3.436505615234375,9.21288776397705,2.518700122833252,-0.5147533416748047
1790341544414958300,3.452958251953125,10.347740173339844,2.231395959854126,0.24181437492370605
1790341544431409700,3.46940966796875,10.345345497131348,2.3104045391082764,1.0271124839782715
1790341544447863600,3.485863525390625,10.309432983398438,2.492363929748535,1.2330138683319092
1790341544464314000,3.502314208984375,10.632649421691895,2.343923568725586,0.8667010068893433
1790341544480766500,3.518766357421875,10.647014617919922,2.118868589401245,0.6703764796257019
1790341544497220000,3.53522021484375,10.357316970825195,1.9057846069335938,0.6799532771110535
1790341544513720600,3.551720458984375,10.484209060668945,1.4173674583435059,0.6823474764823914
1790341544530234400,3.568234375,10.821791648864746,1.2330138683319092,0.7206547260284424
1790341544546686000,3.58468603515625,11.434707641601562,1.2665326595306396,1.1228805780410767
1790341544563170000,3.601170166015625,11.6430025100708,1.194706678390503,1.1180921792984009
1790341544579650800,3.61765087890625,11.712434768676758,0.6607996821403503,0.7206547260284424
1790341544596103400,3.634103515625,11.267112731933594,0.3423708379268646,0.49320554733276367
1790341544612586500,3.65058642578125,11.118672370910645,0.24420857429504395,0.4620809257030487
1790341544629039000,3.6670390625,10.575188636779785,-0.11252748221158981,0.40462008118629456
1790341544645491200,3.6834912109375,10.398017883300781,-0.395043283700943,0.3758896589279175
1790341544661940200,3.699940185546875,9.964667320251465,-0.6009446382522583,0.5889736413955688
1790341544678388500,3.716388427734375,9.943120002746582,-0.6847416758537292,0.7948749661445618
1790341544694873300,3.732873291015625,9.93354320526123,-0.7733271718025208,0.8571242094039917
1790341544711326200,3.749326171875,9.928754806518555,-0.6799532771110535,1.1492167711257935
1790341544727801300,3.76580126953125,9.734824180603027,-0.5913678407669067,1.4484920501708984
1790341544744252000,3.782251953125,9.610325813293457,-0.4189853072166443,1.723825216293335
1790341544760702700,3.79870263671875,9.62947940826416,-0.21308395266532898,1.501164436340332
1790341544777093000,3.815093017578125,9.394847869873047,-0.33039984107017517,0.9289502501487732
1790341544793543200,3.831543212890625,9.57441234588623,-0.7709329724311829,-0.004788403399288654
1790341544810027500,3.848027587890625,9.727641105651855,-0.9744400978088379,-0.33997663855552673
1790341544826448100,3.8644482421875,9.971850395202637,-1.1300631761550903,-0.16759411990642548
1790341544842900200,3.880900146484375,3.579331636428833,4.541800498962402,2.913743495941162
1790341544859354000,3.89735400390625,17.106571197509766,-3.9839515686035156,1.4628572463989258
1790341544875807000,3.913806884765625,11.30063247680664,-0.20111294090747833,0.3064578175544739
1790341544892259600,3.930259521484375,9.119514465332031,-0.7709329724311829,-0.3734954595565796
1790341544908709600,3.946709716796875,10.029311180114746,-1.5203180313110352,-0.8906430602073669
1790341544925158400,3.963158447265625,9.950302124023438,0.6512228846549988,-0.6871358752250671
1790341544941643300,3.979643310546875,9.315838813781738,-0.11252748221158981,-0.586579442024231
1790341544958094000,3.996093994140625,9.57201862335205,0.033518824726343155,-1.1827356815338135
1790341544974601500,4.0126015625,8.695740699768066,1.2449848651885986,0.5123591423034668
1790341544991051300,4.02905126953125,9.296685218811035,0.7541735172271729,-0.6320692300796509
1790341545007502000,4.045502197265625,9.86889934539795,0.7230489253997803,-0.9576807022094727
1790341545024015000,4.06201513671875,9.313444137573242,1.400607943534851,-0.7852981686592102
1790341545040462300,4.07846240234375,10.465055465698242,0.8475474119186401,-1.678335428237915
1790341545056909800,4.094909912109375,9.93354320526123,1.4628572463989258,-0.9026140570640564
1790341545073386800,4.11138671875,10.680533409118652,1.0606313943862915,-0.6129156351089478
1790341545089835000,4.1278349609375,9.526528358459473,1.1851298809051514,-0.5961562395095825
1790341545106318300,4.144318359375,12.076353073120117,2.674323320388794,0.2968810200691223
1790341545122837000,4.1608369140625,12.773066520690918,2.985569477081299,0.26096799969673157
1790341545139209500,4.17720947265625,11.975796699523926,2.1930887699127197,-0.24181437492370605
1790341545155656000,4.193656005859375,10.24239444732666,2.387019157409668,0.7086837291717529
1790341545172157400,4.210157470703125,10.256759643554688,1.0749965906143188,-0.23942017555236816
1790341545188610000,4.226610107421875,8.458714485168457,3.97916316986084,1.113303780555725
1790341545205061600,4.2430615234375,10.108319282531738,0.08858546614646912,-2.626439332962036
1790341545221568000,4.259568115234375,12.591106414794922,3.641580820083618,0.22744916379451752
1790341545238017500,4.276017578125,11.57596492767334,6.0836663246154785,0.6799532771110535
1790341545254467000,4.292467041015625,9.706093788146973,2.5306711196899414,1.3215993642807007
1790341545270877700,4.308877685546875,10.781089782714844,2.2361843585968018,0.5506663918495178
1790341545287326500,4.325326416015625,8.71728801727295,2.3750481605529785,0.42856210470199585
1790341545303776000,4.34177587890625,9.567230224609375,1.0414776802062988,0.9145850539207458
1790341545320253200,4.358253173828125,9.2033109664917,2.1475989818573,1.3239935636520386
1790341545336704500,4.37470458984375,8.501810073852539,2.47560453414917,1.1037269830703735
1790341545353157000,4.3911572265625,7.773972988128662,0.6703764796257019,1.1276689767837524
1790341545369609700,4.407609619140625,9.775525093078613,2.4013843536376953,1.3239935636520386
1790341545386095600,4.424095703125,8.786720275878906,1.3742717504501343,1.2641384601593018
1790341545402547700,4.440547607421875,9.615114212036133,1.86508309841156,1.5921441316604614
1790341545419000000,4.457,10.539276123046875,2.425326347351074,2.1739351749420166
1790341545435481300,4.4734814453125,10.752359390258789,1.6759412288665771,2.7078421115875244
1790341545451933700,4.48993359375,11.88002872467041,2.738966703414917,3.2417490482330322
1790341545468418000,4.50641796875,11.841721534729004,2.2026655673980713,1.647210717201233
1790341545484869400,4.522869384765625,11.654973983764648,2.274491548538208,0.6871358752250671
1790341545501320200,4.5393203125,10.074800491333008,1.7405846118927002,0.3734954595565796
1790341545517740300,4.555740234375,9.191340446472168,2.1499931812286377,0.8643068075180054
1790341545534191900,4.57219189453125,8.59997272491455,2.4660277366638184,0.8619126081466675
1790341545550646500,4.588646484375,8.415618896484375,2.5977089405059814,0.8427590131759644
1790341545567125200,4.605125244140625,7.95832633972168,2.9281086921691895,0.730231523513794
1790341545583574500,4.621574462890625,7.7883381843566895,3.160346269607544,0.6703764796257019
1790341545600056300,4.638056396484375,7.860164165496826,3.315969467163086,0.9050082564353943
1790341545616507400,4.65450732421875,7.694964408874512,3.5003228187561035,0.5602431893348694
1790341545632971500,4.670971435546875,7.41484260559082,3.4787750244140625,0.12210428714752197
1790341545649420500,4.687420654296875,7.041347026824951,3.0358476638793945,-0.7805097699165344
1790341545665869800,4.703869873046875,5.0685248374938965,2.9496564865112305,-0.1604115068912506
1790341545682319600,4.720319580078125,29.16377067565918,-6.414066314697266,11.695674896240234
1790341545698771000,4.73677099609375,1.9919757843017578,7.094019412994385,0.05746084079146385
1790341545715222800,4.753222900390625,15.478513717651367,0.8858546018600464,3.5649664402008057
1790341545731674600,4.769674560546875,6.7492547035217285,4.522646903991699,1.766920804977417
1790341545748125400,4.78612548828125,10.38844108581543,2.806004285812378,2.0207061767578125
1790341545764597200,4.80259716796875,8.276755332946777,4.086902141571045,1.3694833517074585
1790341545781045000,4.819044921875,9.042900085449219,3.861847400665283,1.4987702369689941
1790341545797492200,4.8354921875,9.916783332824707,3.354276657104492,1.455674648284912
1790341545813963300,4.85196337890625,8.547300338745117,3.339911460876465,0.9002198576927185
1790341545830439400,4.868439453125,7.790732383728027,3.3279404640197754,1.3694833517074585
1790341545846884600,4.884884521484375,7.340622425079346,3.4524388313293457,1.656787633895874
1790341545863374600,4.90137451171875,9.205705642700195,1.7884687185287476,0.9313444495201111
1790341545879819800,4.91781982421875,9.555258750915527,1.4867992401123047,0.828393816947937
1790341545896269000,4.93426904296875,9.124302864074707,1.9393033981323242,0.6344634294509888
1790341545912713200,4.950713134765625,8.513781547546387,2.873042106628418,0.9217676520347595
1790341545929159400,4.967159423828125,9.840168952941895,3.045424461364746,1.460463047027588
1790341545945604000,4.98360400390625,10.007762908935547,3.3303346633911133,1.7764976024627686
1790341545962045200,5.000045166015625,10.771512985229492,3.292027235031128,1.4460978507995605
1790341545978488600,5.016488525390625,10.070012092590332,3.490746021270752,2.497152328491211
1790341545994935800,5.032935791015625,8.226476669311523,3.780444383621216,3.1531636714935303
1790341546011381200,5.04938134765625,8.322244644165039,3.579331636428833,3.138798475265503
1790341546027830800,5.065830810546875,7.996633529663086,3.3063924312591553,2.894589900970459
1790341546044274400,5.0822744140625,12.303802490234375,2.0829553604125977,0.9959878921508789
1790341546060747800,5.098747802734375,7.280767440795898,1.800439715385437,1.0247182846069336
1790341546077794300,5.115794189453125,7.553706169128418,0.7876923680305481,-0.545877993106842
1790341546093440500,5.1314404296875,10.828974723815918,0.3734954595565796,-1.2521674633026123
1790341546109887500,5.147887451171875,8.121131896972656,0.586579442024231,-0.3495534360408783
1790341546126336800,5.164336669921875,10.192116737365723,-0.15801730751991272,-0.5386953949928284
1790341546142786600,5.18078662109375,9.856928825378418,0.028730420395731926,-0.3447650372982025
1790341546159236600,5.197236572265625,10.63504409790039,-0.363918662071228,-0.2346317619085312
1790341546175687200,5.213687255859375,11.547234535217285,-0.5027823448181152,0.40462008118629456
1790341546192103700,5.230103759765625,11.568782806396484,-0.4668693244457245,0.3447650372982025
1790341546208552000,5.246552001953125,11.240777015686035,0.15322890877723694,1.1444283723831177
1790341546225000000,5.263,10.714052200317383,0.5386953949928284,0.043095629662275314
1790341546241446700,5.27944677734375,9.083600997924805,0.8571242094039917,1.0079588890075684
1790341546257921500,5.295921630859375,10.350133895874023,0.5793967843055725,0.5578489899635315
1790341546274367500,5.312367431640625,10.879252433776855,1.1109095811843872,-0.5267243981361389
1790341546290812000,5.32881201171875,9.607931137084961,1.4221558570861816,0.6967126727104187
1790341546307280100,5.345280029296875,10.055646896362305,1.259350061416626,1.1540051698684692
1790341546323741000,5.361740966796875,8.508993148803711,1.534683346748352,0.45250412821769714
1790341546340228900,5.378228759765625,9.165003776550293,1.5394717454910278,0.6727706789970398
1790341546356693500,5.394693603515625,9.521739959716797,1.4317326545715332,0.5961562395095825
1790341546373139700,5.4111396484375,9.830592155456543,1.2761094570159912,0.29209262132644653
1790341546389606400,5.4276064453125,10.24239444732666,1.2880805730819702,0.646434485912323
1790341546406091500,5.444091552734375,10.326191902160645,1.3431471586227417,0.811634361743927
1790341546422538200,5.460538330078125,9.27034854888916,2.389413356781006,1.1013327836990356
1790341546438986800,5.47698681640625,9.821015357971191,1.8962076902389526,0.5913678407669067
1790341546455445500,5.493445556640625,9.485827445983887,1.115697979927063,0.05027823522686958
1790341546471921000,5.5099208984375,9.713275909423828,0.3926490843296051,-0.4165911078453064
1790341546488367600,5.52636767578125,10.623072624206543,-0.4644751250743866,0.19632454216480255
1790341546504738300,5.54273828125,10.177751541137695,-0.586579442024231,0.5147533416748047
1790341546521183500,5.55918359375,9.241618156433105,-0.2346317619085312,0.7565677165985107
1790341546537673200,5.575673095703125,9.05247688293457,0.3208230137825012,1.0534487962722778
1790341546554148000,5.592148193359375,9.567230224609375,1.094150185585022,0.5147533416748047
1790341546570596000,5.60859619140625,9.734824180603027,0.9816226959228516,-0.08140286058187485
1790341546587046000,5.6250458984375,10.268731117248535,0.5267243981361389,-0.17717093229293823
1790341546603494400,5.641494384765625,9.409213066101074,1.0630255937576294,0.3519476354122162
1790341546619942700,5.657942626953125,10.072406768798828,1.0438719987869263,0.24899697303771973
1790341546636389000,5.67438916015625,9.586383819580078,1.45806884765625,0.912190854549408
1790341546652837000,5.690837158203125,8.542511940002441,1.5610195398330688,1.1085153818130493
1790341546669282300,5.7072822265625,9.378087997436523,1.2330138683319092,0.9265560507774353
1790341546685726000,5.723725830078125,9.074024200439453,1.8722656965255737,0.9983820915222168
1790341546702196500,5.740196533203125,9.124302864074707,2.1499931812286377,1.0893617868423462
1790341546718639600,5.7566396484375,8.671798706054688,2.1045033931732178,1.2713210582733154
1790341546735081500,5.77308154296875,8.851364135742188,1.6903064250946045,1.2090718746185303
1790341546751494100,5.789494140625,8.638279914855957,1.6376339197158813,0.9528923034667969
1790341546767938000,5.80593798828125,10.299856185913086,0.751779317855835,1.0079588890075684
1790341546784415200,5.822415283203125,10.189722061157227,0.6488286852836609,0.7326257228851318
1790341546800889300,5.838889404296875,9.35654067993164,0.5291185975074768,0.11971008777618408
1790341546817335600,5.85533544921875,9.593565940856934,0.4620809257030487,0.24660277366638184
1790341546833814500,5.871814453125,10.211270332336426,0.28969839215278625,0.17956513166427612
1790341546850264300,5.888264404296875,9.337387084960938,-0.05267243832349777,-0.629675030708313
1790341546866677000,5.904677001953125,9.653421401977539,-0.4405331015586853,-0.49799394607543945
1790341546883121200,5.92112109375,10.460267066955566,-0.15562310814857483,-0.9911994934082031
1790341546899565800,5.93756591796875,9.916783332824707,-0.047884032130241394,-1.1779472827911377
1790341546916010500,5.954010498046875,9.859322547912598,0.08858546614646912,-0.7924807667732239
1790341546932454400,5.970454345703125,10.213664054870605,1.1180921792984009,-0.1388636976480484
1790341546948922400,5.98692236328125,10.287884712219238,0.8643068075180054,0.22744916379451752
1790341546965367800,6.003367919921875,10.3549222946167,1.6136919260025024,0.9792284965515137
1790341546981811000,6.01981103515625,8.212111473083496,2.940079689025879,0.17477671802043915
1790341546998175700,6.03617578125,9.636661529541016,1.5466543436050415,0.6631938815116882
1790341547014616800,6.052616943359375,8.188169479370117,1.824381709098816,0.9145850539207458
1790341547031093000,6.069093017578125,9.150638580322266,3.5960910320281982,0.3998316824436188
1790341547047564500,6.085564453125,8.89685344696045,2.8179752826690674,1.843535304069519
1790341547063990800,6.10199072265625,9.677363395690918,3.512293815612793,0.9792284965515137
1790341547080471300,6.11847119140625,9.641449928283691,2.9879636764526367,0.49559974670410156
1790341547096917800,6.134917724609375,9.165003776550293,2.4827871322631836,0.31124621629714966
1790341547113399600,6.151399658203125,9.421183586120605,2.1595699787139893,0.2322375625371933
1790341547129847600,6.16784765625,10.098742485046387,2.609679937362671,0.5267243981361389
1790341547146293200,6.184293212890625,8.638279914855957,3.2561142444610596,-0.20350714027881622
1790341547162742500,6.200742431640625,8.652645111083984,3.2082302570343018,-0.13168109953403473
1790341547179190500,6.2171904296875,8.377311706542969,3.603273630142212,0.016759412363171577
1790341547195659500,6.233659423828125,8.2312650680542,3.0310592651367188,0.4620809257030487
1790341547212072200,6.250072265625,8.832210540771484,4.462791919708252,0.2968810200691223
1790341547228563700,6.266563720703125,9.040505409240723,3.7612907886505127,0.8571242094039917
1790341547245044200,6.283044189453125,9.29189682006836,3.8762125968933105,0.9169792532920837
1790341547261514800,6.2995146484375,9.057265281677246,3.3446998596191406,0.9744400978088379
1790341547277962800,6.315962646484375,10.350133895874023,3.533841609954834,1.039083480834961
1790341547294439000,6.33243896484375,9.02135181427002,3.3877954483032227,0.5147533416748047
1790341547310886100,6.34888623046875,9.962273597717285,3.825934410095215,0.7086837291717529
1790341547327334000,6.365333984375,9.84495735168457,2.9759926795959473,-0.1388636976480484
1790341547343780900,6.38178076171875,9.80904483795166,3.339911460876465,-0.21787235140800476
1790341547360229400,6.3982294921875,9.26795482635498,3.1483752727508545,0.05746084079146385
1790341547376676900,6.4146767578125,9.246406555175781,2.983175277709961,0.5434837937355042
1790341547393123300,6.431123291015625,10.065223693847656,3.691859006881714,0.8643068075180054
1790341547409570000,6.447570068359375,9.191340446472168,3.0119056701660156,0.7134721279144287
1790341547426016000,6.46401611328125,9.528923034667969,3.0861260890960693,0.6727706789970398
1790341547442459100,6.480459228515625,9.165003776550293,3.0406360626220703,0.304063618183136
1790341547458904000,6.496904052734375,9.955090522766113,2.5737667083740234,-0.014365210197865963
1790341547475350300,6.513350341796875,9.461885452270508,2.073378562927246,-0.4572925269603729
1790341547491826400,6.529826416015625,9.610325813293457,3.9671921730041504,0.33518823981285095
1790341547508303400,6.546303466796875,8.796297073364258,2.229001760482788,-0.44532153010368347
1790341547524816100,6.562816162109375,10.053253173828125,3.2632968425750732,0
1790341547541151700,6.57915185546875,9.102754592895508,3.5889084339141846,0.2992752194404602
1790341547557629000,6.59562890625,8.901641845703125,2.5091233253479004,-0.033518824726343155
1790341547574073600,6.612073486328125,9.952696800231934,3.4380736351013184,1.9057846069335938
1790341547590517800,6.628517822265625,9.246406555175781,3.5649664402008057,-0.21787235140800476
1790341547606959600,6.644959716796875,9.41400146484375,3.112462282180786,-0.44532153010368347
1790341547623407600,6.66140771484375,8.619126319885254,3.5434184074401855,1.1851298809051514
1790341547639799300,6.67779931640625,9.038111686706543,2.5737667083740234,0.45250412821769714
1790341547656294100,6.694294189453125,9.0859956741333,3.337517261505127,-0.3064578175544739
1790341547672767700,6.710767822265625,9.042900085449219,2.6384103298187256,0.6392518281936646
1790341547689213200,6.727213134765625,9.847352027893066,3.529053211212158,0.36152446269989014
1790341547705655000,6.743655029296875,8.652645111083984,2.9233202934265137,-0.4381389021873474
1790341547722097000,6.760096923828125,8.664615631103516,3.1316158771514893,1.5753847360610962
1790341547738541600,6.77654150390625,9.346963882446289,2.4420857429504395,0.45250412821769714
1790341547754984700,6.792984619140625,8.135497093200684,2.3295583724975586,0.3663128614425659
1790341547771431400,6.809431396484375,9.780313491821289,2.5905263423919678,0.569819986820221
1790341547787903700,6.82590380859375,9.39245319366455,3.2178070545196533,0.8882488012313843
1790341547804348200,6.84234814453125,8.865729331970215,2.9688100814819336,0.33997663855552673
1790341547820790300,6.858790283203125,10.038887977600098,2.2912509441375732,0.1412578970193863
1790341547837232600,6.875232666015625,8.832210540771484,2.719813108444214,0.5674257874488831
1790341547853676000,6.891676025390625,8.959102630615234,2.4851813316345215,0.3902548849582672
1790341547870155800,6.90815576171875,9.469067573547363,2.1475989818573,1.158793568611145
1790341547886600400,6.924600341796875,9.607931137084961,3.162740468978882,0.4572925269603729
1790341547903043800,6.9410439453125,10.02691650390625,2.279279947280884,0.6320692300796509
1790341547919484700,6.957484619140625,9.083600997924805,2.027888774871826,0.3663128614425659
1790341547935927300,6.97392724609375,8.767566680908203,3.270479440689087,0.48602294921875
1790341547952366600,6.99036669921875,8.899248123168945,0.6775590777397156,-0.5219359993934631
1790341547968806100,7.00680615234375,11.08754825592041,1.316810965538025,-0.5793967843055725
1790341547985273300,7.0232734375,9.591172218322754,2.8203697204589844,-0.569819986820221
1790341548001715200,7.039715087890625,9.44991397857666,2.779668092727661,-0.993593692779541
1790341548018160000,7.05616015625,7.920019149780273,1.8938134908676147,-0.6847416758537292
1790341548034633700,7.0726337890625,10.493785858154297,0.10295066982507706,-0.871489405632019
1790341548051078700,7.08907861328125,9.411606788635254,3.3279404640197754,-0.12449848651885986
1790341548066559700,7.104559814453125,11.985373497009277,0.6392518281936646,-0.871489405632019
1790341548083002400,7.12100244140625,10.067618370056152,1.6663644313812256,0.5674257874488831
1790341548099449600,7.13744970703125,7.134721279144287,2.123656988143921,-0.12928688526153564
1790341548115896000,7.15389599609375,7.074865818023682,1.7621324062347412,2.647987127304077
1790341548131347500,7.169347412109375,10.716446876525879,4.299986362457275,0.9361328482627869
1790341548147831800,7.185831787109375,7.139509677886963,1.7142484188079834,-1.941697597503662
1790341548164277000,7.202277099609375,11.60708999633789,3.485957622528076,3.19865345954895
1790341548180720600,7.218720703125,8.08043098449707,-0.22505496442317963,0.07182604819536209
1790341548197166600,7.23516650390625,8.530540466308594,0.37828385829925537,-1.3192051649093628
1790341548213650700,7.251650634765625,9.684545516967773,1.699883222579956,0.43335050344467163
1790341548230115000,7.268114990234375,12.57913589477539,2.3558945655822754,1.6136919260025024
1790341548246565000,7.284565185546875,11.918335914611816,2.786850690841675,-1.6831238269805908
1790341548263014400,7.301014404296875,8.635885238647461,2.454056739807129,0.2944868206977844
1790341548279492400,7.317492431640625,6.627150535583496,2.8850131034851074,1.6352397203445435
1790341548295940000,7.333940185546875,9.229647636413574,2.7988216876983643,0.7110779285430908
1790341548312389400,7.350389404296875,12.36605167388916,0.26096799969673157,0.4644751250743866
1790341548328834600,7.36683447265625,8.542511940002441,0.7948749661445618,1.3886369466781616
1790341548345278200,7.3832783203125,14.475343704223633,1.7573440074920654,2.027888774871826
1790341548361722400,7.399722412109375,10.848128318786621,1.3862427473068237,0.7086837291717529
1790341548378170000,7.416170166015625,8.394071578979492,-0.06224924325942993,-0.5051765441894531
1790341548394619000,7.432618896484375,7.441178798675537,0.028730420395731926,0.7469909191131592
1790341548411063300,7.449063232421875,8.822632789611816,-0.016759412363171577,0.3232172429561615
1790341548427510300,7.46551025390625,13.362039566040039,0.5746083855628967,-0.8619126081466675
1790341548443960300,7.481960205078125,10.110713958740234,0.23702596127986908,-0.6655880808830261
1790341548460410400,7.498410400390625,7.12035608291626,0.45489832758903503,0.26575639843940735
1790341548476877300,7.514877197265625,11.118672370910645,2.1116859912872314,1.6160861253738403
1790341548493326000,7.531326171875,11.36048698425293,2.075772762298584,4.01268196105957
1790341548509773800,7.54777392578125,10.213664054870605,0.35434186458587646,1.7932571172714233
1790341548526245600,7.56424560546875,7.802703380584717,0.014365210197865963,-0.1149216815829277
1790341548542630100,7.580630126953125,8.772355079650879,0.8906430602073669,1.3838485479354858
1790341548559075600,7.59707568359375,9.368511199951172,1.6735470294952393,1.4844050407409668
1790341548575520500,7.6135205078125,7.929595947265625,0.44532153010368347,0.828393816947937
1790341548592012000,7.630011962890625,9.050082206726074,-0.181959331035614,0.7398083209991455
1790341548608460500,7.64646044921875,11.291055679321289,-0.8786720037460327,-1.0342950820922852
1790341548624939000,7.66293896484375,9.679757118225098,0.47884035110473633,1.1779472827911377
1790341548641462500,7.679462646484375,9.0859956741333,0.12210428714752197,0.1604115068912506
1790341548657928200,7.69592822265625,9.78989028930664,-0.1149216815829277,-0.5123591423034668
1790341548674375200,7.712375244140625,10.244789123535156,0.993593692779541,0.6775590777397156
1790341548690824000,7.728823974609375,10.08437728881836,0.1412578970193863,0.40462008118629456
1790341548707271700,7.745271728515625,10.704475402832031,0.5650315880775452,-0.5961562395095825
1790341548723748000,7.761748046875,10.522516250610352,0.7015010714530945,0.27054479718208313
1790341548740194000,7.778194091796875,11.736376762390137,1.0606313943862915,-0.1388636976480484
1790341548756640000,7.794639892578125,8.968679428100586,1.434126853942871,1.3910311460494995
1790341548773115100,7.811115234375,10.903194427490234,0.8044517636299133,-0.0694318488240242
1790341548789563000,7.82756298828125,10.110713958740234,0.8020575642585754,-0.2968810200691223
1790341548806011400,7.844011474609375,9.102754592895508,0.6536170840263367,0.790086567401886
1790341548822458400,7.860458251953125,10.599130630493164,0.9983820915222168,-0.36152446269989014
1790341548838906400,7.87690625,9.476250648498535,1.3287819623947144,-0.26815059781074524
1790341548855355000,7.89335498046875,8.722076416015625,0.8690952062606812,2.2912509441375732
1790341548871800800,7.90980078125,10.462661743164062,1.3431471586227417,-0.7182605266571045
1790341548888294700,7.926294677734375,8.868123054504395,1.6759412288665771,0.21787235140800476
1790341548904742400,7.942742431640625,9.263166427612305,1.644816517829895,0.8882488012313843
1790341548921190000,7.95918994140625,9.737217903137207,1.5682021379470825,0.27054479718208313
1790341548937636000,7.975635986328125,9.548076629638672,2.2385785579681396,0.5099649429321289
1790341548954083600,7.99208349609375,9.038111686706543,1.1204863786697388,0.5339069962501526
1790341548970589200,8.008589111328124,10.441113471984863,1.2425906658172607,-0.11252748221158981
1790341548987035400,8.025035400390625,10.20887565612793,1.1875240802764893,0.7661445140838623
1790341549003513900,8.041513916015624,9.457097053527832,1.216254472732544,0.1388636976480484
1790341549019990800,8.05799072265625,9.069235801696777,0.9624691009521484,-0.24899697303771973
1790341549036437800,8.074437744140624,9.59835433959961,1.137245774269104,0.8523358106613159
1790341549052913200,8.0909130859375,10.663774490356445,1.922544002532959,-0.05027823522686958
1790341549069277200,8.107277099609375,10.187328338623047,2.011129379272461,0.12449848651885986
1790341549085754600,8.123754638671874,7.82185697555542,0.8212111592292786,1.1180921792984009
1790341549102248200,8.140248291015626,10.077195167541504,1.5753847360610962,-0.4620809257030487
1790341549118697700,8.15669775390625,9.90241813659668,1.0845733880996704,0.5674257874488831
1790341549135176200,8.17317626953125,9.346963882446289,1.2306196689605713,1.1755530834197998
1790341549151626200,8.189626220703126,9.042900085449219,0.3280056416988373,-0.10534487664699554
1790341549168118500,8.206118408203125,10.074800491333008,1.4317326545715332,0.4381389021873474
1790341549184566000,8.22256591796875,9.442731857299805,1.335964560508728,0.768538773059845
1790341549201015000,8.23901513671875,9.526528358459473,0.7350199222564697,0.8236053586006165
1790341549217403100,8.255403076171875,10.309432983398438,0.5817909836769104,-0.4118026793003082
1790341549233860400,8.2718603515625,9.100360870361328,1.7262194156646729,1.0055646896362305
1790341549250366500,8.288366455078124,9.17697525024414,1.170764684677124,0.2825157940387726
1790341549266896400,8.304896484375,9.775525093078613,0.6224924325942993,0.7493851184844971
1790341549283381800,8.3213818359375,10.225635528564453,0.6320692300796509,-0.09576806426048279
1790341549299910400,8.337910400390625,9.509769439697266,1.7310078144073486,0.790086567401886
1790341549316398300,8.3543984375,9.069235801696777,0.9409212470054626,0.22026655077934265
1790341549332871700,8.37087158203125,9.093177795410156,1.623268723487854,0.9361328482627869
1790341549349372400,8.387372314453126,9.275136947631836,1.2425906658172607,-0.20111294090747833
1790341549365822200,8.403822265625,9.334992408752441,0.5937620401382446,0.6727706789970398
1790341549382351000,8.42035107421875,10.326191902160645,1.036689281463623,1.1300631761550903
1790341549398844200,8.43684423828125,9.715670585632324,1.0438719987869263,0.2082955539226532
1790341549415355400,8.45335546875,9.232041358947754,0.9193734526634216,0.9768342971801758
1790341549431857000,8.46985693359375,9.847352027893066,1.1276689767837524,0.828393816947937
1790341549448306000,8.486305908203125,9.35893440246582,1.0199298858642578,0.07661445438861847
1790341549464861700,8.50286181640625,10.110713958740234,0.8571242094039917,0.993593692779541
1790341549481333800,8.519333740234375,10.599130630493164,0.9074024558067322,0.10055647045373917
1790341549497785600,8.53578564453125,10.055646896362305,0.6177040338516235,0.028730420395731926
1790341549514263800,8.552263916015624,9.8784761428833,0.871489405632019,0.22505496442317963
1790341549530714400,8.56871435546875,10.108319282531738,0.9145850539207458,0.6272808313369751
1790341549547164000,8.585163818359375,9.66539192199707,0.7350199222564697,0.5650315880775452
1790341549563556400,8.601556396484375,8.98543930053711,1.039083480834961,0.768538773059845
1790341549580007200,8.618007080078126,10.105925559997559,0.7015010714530945,0.40940847992897034
1790341549596459000,8.634458984375,8.949525833129883,0.9002198576927185,0.5051765441894531
1790341549612905500,8.650905517578124,9.399636268615723,0.706289529800415,0.9097966551780701
1790341549629355000,8.66735498046875,10.409989356994629,0.524330198764801,-0.7134721279144287
1790341549645731800,8.68373193359375,8.939949035644531,0.9385270476341248,1.3982137441635132
1790341549662179800,8.700179931640625,9.806650161743164,0.5027823448181152,0.4836287498474121
1790341549678626600,8.71662646484375,10.474632263183594,0.3280056416988373,0.13168109953403473
1790341549695075000,8.733074951171876,9.871294021606445,0.7637503147125244,1.4269442558288574
1790341549711552800,8.749552734375,10.20648193359375,0.4189853072166443,0.019153613597154617
1790341549728026600,8.766026611328124,10.02452278137207,0.5961562395095825,0.42856210470199585
1790341549744532700,8.78253271484375,9.847352027893066,0.33997663855552673,0.44771572947502136
1790341549761062700,8.799062744140626,10.56800651550293,0.5339069962501526,0.6368576288223267
1790341549777550300,8.81555029296875,10.053253173828125,0.3232172429561615,-0.6177040338516235
1790341549793997800,8.831997802734374,9.581595420837402,0.6153098344802856,0.3974374830722809
1790341549810447000,8.848447021484375,10.050858497619629,1.0007762908935547,1.3096283674240112
1790341549826894600,8.86489453125,10.201693534851074,0.727837324142456,0.31842881441116333
1790341549843339300,8.88133935546875,9.311050415039062,0.6105214357376099,0.22266076505184174
1790341549859782700,8.89778271484375,9.162610054016113,0.5003881454467773,0.7637503147125244
1790341549876227600,8.9142275390625,9.888052940368652,0.2537853717803955,0.3447650372982025
1790341549892701000,8.930700927734375,9.277531623840332,0.5339069962501526,0.44532153010368347
1790341549909239800,8.94723974609375,9.974244117736816,0.2944868206977844,0.21787235140800476
1790341549925738800,8.96373876953125,9.950302124023438,0.7206547260284424,0.5578489899635315
1790341549942186000,8.98018603515625,9.655815124511719,0.8188169598579407,0.47405192255973816
1790341549958664200,8.996664306640625,10.132261276245117,0.6272808313369751,0.47644615173339844
1790341549975111700,9.013111572265625,8.310274124145508,0.9696516990661621,0.12689268589019775
1790341549991559200,9.02955908203125,9.196128845214844,0.49559974670410156,0.5578489899635315
1790341550008086500,9.04608642578125,9.988609313964844,0.6631938815116882,0.4213795065879822
1790341550024570600,9.062570556640624,9.490615844726562,0.6703764796257019,0.1412578970193863
1790341550041096200,9.07909619140625,10.500968933105469,0.2585737705230713,0.1412578970193863
1790341550057518600,9.0955185546875,10.718840599060059,0.21547815203666687,0.1867477297782898
1790341550074025000,9.11202490234375,8.142680168151855,0.7589619159698486,0.2513911724090576
1790341550090496500,9.12849658203125,9.160215377807617,0.35913026332855225,0.272938996553421
1790341550106951200,9.144951171875,10.520122528076172,0.5099649429321289,0.038307227194309235
1790341550123402500,9.161402587890626,9.105149269104004,0.8092401623725891,-0.507570743560791
1790341550139875000,9.177875,9.567230224609375,1.278503656387329,1.6735470294952393
1790341550156365300,9.194365234375,10.15141487121582,0.5961562395095825,0.08140286058187485
1790341550172845600,9.210845458984375,9.68694019317627,0.49559974670410156,-0.3471592366695404
1790341550189334000,9.227333984375,10.493785858154297,0.8020575642585754,0.2537853717803955
1790341550205860600,9.243860595703126,9.825803756713867,-0.21787235140800476,0.13168109953403473
1790341550222338600,9.260338623046875,11.111490249633789,0.7661445140838623,0.18914192914962769
1790341550238686500,9.2766865234375,10.302249908447266,1.3096283674240112,0.49799394607543945
1790341550255217700,9.2932177734375,9.224859237670898,1.6496049165725708,-0.3758896589279175
1790341550271705000,9.309705078125,9.32541561126709,0.7134721279144287,0.7996633648872375
1790341550288231400,9.3262314453125,9.397241592407227,1.359906554222107,0.014365210197865963
1790341550304682000,9.342681884765625,9.05247688293457,-0.10773907601833344,0.07182604819536209
1790341550321158000,9.359157958984374,10.38844108581543,0.3232172429561615,-0.08379705995321274
1790341550337610500,9.375610595703124,10.074800491333008,0.545877993106842,0.9289502501487732
1790341550354059800,9.392059814453125,10.237606048583984,0.6033388376235962,1.3431471586227417
1790341550370527700,9.40852783203125,10.055646896362305,0.5506663918495178,-0.031124621629714966
1790341550386974200,9.42497412109375,9.583989143371582,0.8738836050033569,0.43335050344467163
1790341550403464200,9.441464111328125,9.57201862335205,-0.0694318488240242,0.49799394607543945
1790341550419913500,9.45791357421875,10.251971244812012,0.6536170840263367,0.038307227194309235
1790341550436364800,9.47436474609375,9.8784761428833,0.14844051003456116,0.05027823522686958
1790341550452888800,9.490888916015624,9.576807022094727,0.181959331035614,0.6440402865409851
1790341550469359900,9.50735986328125,9.3828763961792,0.090979665517807,0.002394201699644327
1790341550485864700,9.52386474609375,9.682151794433594,0.4692635238170624,-0.2513911724090576
1790341550502393300,9.540393310546875,8.923190116882324,0.5147533416748047,0.4118026793003082
1790341550518836700,9.556836669921875,9.749189376831055,0.3711012601852417,0.12449848651885986
1790341550535280600,9.57328076171875,9.27034854888916,0.3495534360408783,0.29209262132644653
1790341550551760000,9.589759765625,10.127472877502441,0.42616790533065796,-0.07900865375995636
1790341550568205800,9.606205810546875,9.244012832641602,-0.16759411990642548,-0.06224924325942993
1790341550584652800,9.62265283203125,10.1753568649292,0.3998316824436188,0.727837324142456
1790341550601043200,9.639043212890625,10.24239444732666,-0.33997663855552673,-0.11013327538967133
1790341550617536500,9.65553662109375,9.552865028381348,0.4668693244457245,0.29209262132644653
1790341550633981400,9.6719814453125,10.036493301391602,-0.12689268589019775,0.4812345504760742
1790341550650426000,9.688426025390624,9.41400146484375,0.7541735172271729,0.2106897532939911
1790341550666872600,9.70487255859375,9.801861763000488,-0.07900865375995636,-0.033518824726343155
1790341550683317200,9.721317138671875,9.545681953430176,0.646434485912323,0.3208230137825012
1790341550699794200,9.737794189453124,8.401253700256348,-0.4405331015586853,0.2059013396501541
1790341550716240600,9.75424072265625,9.172186851501465,0.6512228846549988,0.7541735172271729
1790341550732687600,9.7706875,8.820239067077637,0.19871874153614044,0.019153613597154617
1790341550749215700,9.7872158203125,9.481039047241211,0.6200982332229614,0.14365209639072418
1790341550765702100,9.8037021484375,10.04846477508545,0.33997663855552673,1.0797849893569946
1790341550782198000,9.820197998046876,8.853757858276367,0.5889736413955688,-0.5219359993934631
1790341550798644700,9.836644775390624,9.253589630126953,0.10773907601833344,0.8379706144332886
1790341550815093000,9.853093017578125,10.110713958740234,0.10055647045373917,0.3208230137825012
1790341550831544000,9.8695439453125,10.127472877502441,0.15083470940589905,0.08619125932455063
1790341550848028700,9.886028564453126,9.258378028869629,0.06224924325942993,0.3519476354122162
1790341550864548900,9.902548828125,9.409213066101074,0.5027823448181152,0.45250412821769714
1790341550881012000,9.919011962890625,8.734047889709473,0.23942017555236816,-0.15562310814857483
1790341550897518800,9.935518798828125,10.431536674499512,0.22505496442317963,0.011971008032560349
1790341550913991000,9.951990966796876,8.9064302444458,1.7381904125213623,0.5770025849342346
1790341550930514700,9.9685146484375,8.099584579467773,-0.2346317619085312,-0.7110779285430908
1790341550947039500,9.98503955078125,9.591172218322754,1.7142484188079834,0.6248866319656372
1790341550963490800,10.00149072265625,8.683769226074219,0.3687070608139038,-0.040701430290937424
1790341550979942000,10.01794189453125,10.08437728881836,0.6392518281936646,-0.19632454216480255
1790341550996421400,10.03442138671875,9.962273597717285,0.35673606395721436,0.706289529800415
1790341551012871700,10.05087158203125,9.696516990661621,0.8810662031173706,0.9672574996948242
1790341551029322200,10.067322265625,9.543288230895996,-0.21308395266532898,-0.10295066982507706
1790341551045772000,10.08377197265625,10.345345497131348,0.7350199222564697,1.1324573755264282
1790341551062080800,10.100080810546874,10.311826705932617,0.38546648621559143,0.2322375625371933
1790341551078424300,10.11642431640625,9.442731857299805,0.6727706789970398,0.19871874153614044
1790341551094871300,10.132871337890625,9.751583099365234,0.06703764945268631,0.5841852426528931
1790341551111317800,10.14931787109375,10.002974510192871,0.7182605266571045,-0.021547814831137657
1790341551127766000,10.16576611328125,8.485051155090332,-0.1628057211637497,0.6177040338516235
1790341551144215300,10.18221533203125,9.794678688049316,0.22026655077934265,0.790086567401886
1790341551160663000,10.1986630859375,8.899248123168945,0.6536170840263367,0.23702596127986908
1790341551177107700,10.215107666015625,8.853757858276367,-0.0933738648891449,0.2346317619085312
1790341551193586200,10.231586181640624,9.734824180603027,0.49320554733276367,0.9193734526634216
1790341551210035200,10.24803515625,10.900800704956055,0.3016694188117981,-0.026336219161748886
1790341551226485200,10.2644853515625,9.399636268615723,-0.011971008032560349,-0.7350199222564697
1790341551242961700,10.280961669921876,9.926360130310059,0.629675030708313,0.7565677165985107
1790341551259410200,10.29741015625,10.771512985229492,0.33997663855552673,-0.0933738648891449
1790341551275859500,10.313859375,8.604761123657227,0.47165772318840027,-0.5147533416748047
1790341551292307200,10.33030712890625,9.224859237670898,0.08140286058187485,0.727837324142456
1790341551308769000,10.34676904296875,9.610325813293457,0.15322890877723694,-0.17956513166427612
1790341551325218300,10.36321826171875,10.33098030090332,1.072602391242981,0.47165772318840027
1790341551341665500,10.37966552734375,9.11233139038086,0.2106897532939911,0.3926490843296051
1790341551358153700,10.39615380859375,9.497797966003418,0.395043283700943,0.24899697303771973
1790341551374644700,10.412644775390625,10.491392135620117,1.1204863786697388,0.2801215946674347
1790341551391150800,10.42915087890625,9.749189376831055,0.31842881441116333,0.023942016065120697
1790341551407594800,10.4455947265625,8.98543930053711,0.047884032130241394,0.1412578970193863
1790341551424041000,10.462041015625,8.820239067077637,-0.3926490843296051,0.4381389021873474
1790341551440522000,10.47852197265625,9.983820915222168,0.7206547260284424,0.38307225704193115
1790341551456972800,10.494972900390625,9.165003776550293,0.13407529890537262,0.16759411990642548
1790341551473422300,10.51142236328125,10.02452278137207,1.1013327836990356,0.8068459630012512
1790341551489919000,10.5279189453125,9.378087997436523,-0.8092401623725891,-0.20111294090747833
1790341551506403600,10.544403564453125,10.113107681274414,0.689530074596405,0.15801730751991272
1790341551522883600,10.560883544921875,10.055646896362305,-0.5027823448181152,0.8331822156906128
1790341551539330600,10.57733056640625,10.249577522277832,-0.7709329724311829,-0.3471592366695404
1790341551555808800,10.593808837890625,10.007762908935547,1.0773907899856567,0.08858546614646912
1790341551572297000,10.610296875,9.923966407775879,0.17477671802043915,0.8475474119186401
1790341551588744700,10.62674462890625,10.558429718017578,0.7038952708244324,0.6488286852836609
1790341551604204000,10.6422041015625,9.366117477416992,0.15801730751991272,-0.7876923680305481
1790341551620650500,10.658650390625,8.508993148803711,0.33758243918418884,1.115697979927063
1790341551637140200,10.67514013671875,8.916007041931152,0.3663128614425659,1.3239935636520386
1790341551653616600,10.69161669921875,9.311050415039062,-0.2082955539226532,-0.5051765441894531
1790341551670060000,10.70806005859375,9.50737476348877,0.6631938815116882,1.2689268589019775
1790341551686474000,10.724473876953125,9.940725326538086,0.1364694982767105,0.7781155705451965
1790341551702946000,10.740946044921875,9.227252960205078,-0.14604631066322327,-0.7374141216278076
1790341551719455000,10.757455078125,9.2033109664917,0.26815059781074524,0.7948749661445618
1790341551735934700,10.773934814453124,10.958261489868164,0.31364041566848755,0.12928688526153564
1790341551752388000,10.79038818359375,8.913613319396973,0.6224924325942993,0.33997663855552673
1790341551768835300,10.80683544921875,10.230423927307129,0.10295066982507706,0.9361328482627869
1790341551785306400,10.823306396484375,10.261548042297363,0.6105214357376099,-0.3711012601852417
1790341551801778700,10.83977880859375,9.074024200439453,0.0071826050989329815,-1.036689281463623
1790341551818225200,10.85622509765625,10.682928085327148,0.7541735172271729,1.5729905366897583
1790341551834712600,10.872712646484375,10.60391902923584,0.4644751250743866,-0.1843535304069519
1790341551851203800,10.889203857421874,8.482656478881836,0.19393034279346466,-0.0933738648891449
1790341551867663600,10.90566357421875,9.80904483795166,0.5482721924781799,1.316810965538025
1790341551884110600,10.922110595703124,10.532093048095703,1.0319008827209473,0.6224924325942993
1790341551900591000,10.938591064453124,9.318233489990234,0.6272808313369751,-0.5410895943641663
1790341551917038000,10.9550380859375,9.272743225097656,0.3758896589279175,1.2832920551300049
1790341551933580300,10.971580322265625,9.832986831665039,1.6352397203445435,0.1149216815829277
1790341551950028800,10.98802880859375,9.509769439697266,0.07422025501728058,0.45010992884635925
1790341551966505700,11.004505615234375,10.077195167541504,0.7565677165985107,0.751779317855835
1790341551982981600,11.020981689453125,10.453084945678711,-0.05746084079146385,0.05985504388809204
1790341551999454500,11.037454345703125,8.650250434875488,-1.0342950820922852,0.10773907601833344
1790341552015930400,11.053930419921874,10.022128105163574,0.33518823981285095,0.1149216815829277
1790341552032382500,11.070382568359374,10.002974510192871,0.3974374830722809,0.1388636976480484
1790341552048828700,11.08682861328125,10.673351287841797,0.3734954595565796,-0.47165772318840027
1790341552065243000,11.103242919921875,9.799467086791992,1.036689281463623,1.1444283723831177
1790341552081728800,11.119728759765625,9.988609313964844,-0.15801730751991272,-1.1468225717544556
1790341552098188300,11.136188232421874,8.482656478881836,-0.4165911078453064,-0.5051765441894531
1790341552114635500,11.152635498046875,11.367670059204102,0.45489832758903503,1.237802267074585
1790341552131080400,11.16908056640625,8.482656478881836,-0.038307227194309235,-0.8786720037460327
1790341552147526400,11.1855263671875,9.062053680419922,0.6631938815116882,0.7038952708244324
1790341552163973000,11.20197314453125,10.848128318786621,1.192312479019165,0.7469909191131592
1790341552180448800,11.21844873046875,9.299078941345215,-0.5937620401382446,-0.5530605912208557
1790341552196912000,11.234912109375,9.93354320526123,0.6177040338516235,0.35434186458587646
1790341552213359000,11.251359130859376,9.370905876159668,-0.17956513166427612,0.3998316824436188
1790341552229836000,11.2678359375,9.672574996948242,0.3208230137825012,-0.730231523513794
1790341552246285000,11.28428515625,9.536105155944824,0.6057330369949341,0.7852981686592102
1790341552262734600,11.300734619140625,10.591948509216309,0.4908113479614258,0.7661445140838623
1790341552279020500,11.3170205078125,9.528923034667969,0.5937620401382446,-0.31364041566848755
1790341552295470600,11.333470703125,9.368511199951172,0.16759411990642548,1.0893617868423462
1790341552311936000,11.34993603515625,10.943896293640137,0.8307880163192749,0.08379705995321274
1790341552328423200,11.366423095703125,9.986215591430664,0.05985504388809204,0.10055647045373917
1790341552344902100,11.382902099609375,10.314221382141113,1.7525556087493896,0.7374141216278076
1790341552361393400,11.399393310546875,9.847352027893066,0.667982280254364,0.2801215946674347
1790341552377867500,11.415867431640624,9.490615844726562,1.235408067703247,-0.4118026793003082
1790341552394369300,11.432369384765625,9.332598686218262,0.36152446269989014,-0.24899697303771973
1790341552410858000,11.44885791015625,8.9064302444458,-0.35434186458587646,0.8619126081466675
1790341552427370200,11.465370361328125,11.781867027282715,0.6248866319656372,-0.016759412363171577
1790341552443836200,11.481836181640626,8.42040729522705,0.6177040338516235,-0.1149216815829277
1790341552460326100,11.498326171875,9.799467086791992,0.0933738648891449,1.280897855758667
1790341552476805400,11.514805419921874,10.36449909210205,0.3447650372982025,-0.395043283700943
1790341552493257000,11.531257080078126,10.160991668701172,0.6631938815116882,-0.7326257228851318
1790341552509734400,11.547734375,9.583989143371582,-0.2585737705230713,0.5817909836769104
1790341552526180000,11.56418017578125,10.223240852355957,0.31364041566848755,-0.3256114423274994
1790341552542656300,11.58065625,9.282320022583008,0.7781155705451965,0.5817909836769104
1790341552559103700,11.597103759765625,9.469067573547363,0.27054479718208313,0.22744916379451752
1790341552575489500,11.613489501953126,9.284713745117188,0.8667010068893433,0.4165911078453064
1790341552591961600,11.629961669921874,9.799467086791992,0.24660277366638184,0.090979665517807
1790341552608341200,11.64634130859375,9.799467086791992,0.8834604024887085,-0.24899697303771973
1790341552624832000,11.66283203125,8.413225173950195,-0.1388636976480484,0.1604115068912506
1790341552641277200,11.679277099609376,10.11789608001709,0,0.9361328482627869
1790341552657725200,11.69572509765625,10.402806282043457,0.2561795711517334,0.3734954595565796
1790341552674176800,11.7121767578125,9.552865028381348,0.3758896589279175,0.8140285611152649
1790341552690669600,11.728669677734375,9.555258750915527,-0.19393034279346466,0.5961562395095825
1790341552707175200,11.745175048828125,9.41400146484375,1.1994950771331787,-0.6105214357376099
1790341552723684900,11.761684814453124,8.846575736999512,-0.19393034279346466,0.9241618514060974
1790341552740134000,11.7781337890625,9.069235801696777,-0.8858546018600464,-0.07182604819536209
1790341552756611800,11.79461181640625,7.63989782333374,0.33039984107017517,0.2825157940387726
1790341552773060600,11.811060546875,7.4100542068481445,-1.0319008827209473,0
1790341552789535700,11.82753564453125,12.035652160644531,1.4101848602294922,-0.8858546018600464
1790341552805982000,11.84398193359375,8.937555313110352,-0.37828385829925537,1.1228805780410767
1790341552822429000,11.860428955078126,9.533711433410645,0.8978256583213806,-1.1276689767837524
1790341552838905900,11.87690576171875,9.385271072387695,-1.0797849893569946,-1.3239935636520386
1790341552855395300,11.893395263671875,10.101137161254883,0.13407529890537262,0.07900865375995636
1790341552871871500,11.90987158203125,9.198522567749023,-0.35913026332855225,-0.3663128614425659
1790341552888317400,11.9263173828125,9.639056205749512,-0.14365209639072418,-0.028730420395731926
1790341552904762400,11.942762451171875,8.037335395812988,-0.5530605912208557,-0.933738648891449
1790341552921256000,11.959255859375,10.512939453125,-1.8626888990402222,-0.028730420395731926
1790341552937702400,11.975702392578125,11.075576782226562,-0.7134721279144287,0.689530074596405
1790341552954119000,11.992118896484374,8.303091049194336,2.9712042808532715,-0.22266076505184174
1790341552970594800,12.0085947265625,10.283096313476562,-2.5258827209472656,-0.12689268589019775
1790341552987053000,12.025052978515625,9.469067573547363,-0.07182604819536209,2.322375535964966
1790341553003499800,12.041499755859375,9.514557838439941,2.9544448852539062,1.9177556037902832
1790341553019949000,12.057948974609374,12.198457717895508,-3.7158010005950928,-1.2713210582733154
1790341553036401000,12.07440087890625,11.140220642089844,2.6024973392486572,-1.4939818382263184
1790341553052900600,12.090900634765624,6.447585105895996,-1.6687586307525635,0.33758243918418884
1790341553069350400,12.107350341796876,8.860940933227539,1.0989385843276978,0.4165911078453064
1790341553085800700,12.12380078125,8.190564155578613,-1.9081788063049316,-2.1380221843719482
1790341553102252800,12.140252685546875,9.564835548400879,-0.363918662071228,0.49799394607543945
1790341553118658600,12.156658447265626,9.588777542114258,-0.7350199222564697,-0.6440402865409851
1790341553135080700,12.173080810546875,9.30386734008789,0.7015010714530945,-0.8954314589500427
1790341553151496200,12.18949609375,9.854534149169922,0.4357447028160095,0.42377370595932007
1790341553167961600,12.205961669921875,10.24000072479248,0.42616790533065796,-0.1364694982767105
1790341553184411600,12.22241162109375,9.038111686706543,0.8068459630012512,0.31124621629714966
1790341553200863700,12.23886376953125,7.632715225219727,-0.6631938815116882,2.011129379272461
1790341553217346000,12.255345947265624,12.899958610534668,0.05267243832349777,-0.4118026793003082
1790341553233795300,12.27179541015625,10.070012092590332,0.24899697303771973,2.7437551021575928
1790341553250244000,12.288244140625,11.128249168395996,1.4484920501708984,0.2537853717803955
1790341553266696000,12.304696044921876,11.286267280578613,1.9369091987609863,1.8722656965255737
1790341553283095800,12.321095703125,8.846575736999512,-0.26096799969673157,1.8770540952682495
1790341553299544000,12.3375439453125,7.2137298583984375,0.08858546614646912,-3.3039982318878174
1790341553315989500,12.353989501953125,11.832144737243652,-1.2832920551300049,5.274426460266113
1790341553332434400,12.370434326171875,16.010026931762695,2.03507137298584,3.6128504276275635
1790341553348878600,12.386878662109375,6.610390663146973,-4.663905143737793,-2.853888511657715
1790341553365327600,12.40332763671875,6.370970726013184,0.9624691009521484,2.782062292098999
1790341553381775000,12.419775146484374,9.265560150146484,-1.4963760375976562,-0.16759411990642548
1790341553398222300,12.436222412109375,7.1251444816589355,-0.24660277366638184,0.7972691655158997
1790341553414682400,12.452682373046875,10.041281700134277,-1.2449848651885986,0.3064578175544739
1790341553431127000,12.469126953125,9.746794700622559,-0.15083470940589905,-0.6320692300796509
1790341553447571500,12.485571533203125,7.479485988616943,-1.036689281463623,0.1149216815829277
1790341553464048000,12.502048095703126,11.3269681930542,-0.35673606395721436,-0.30885201692581177
1790341553480494800,12.518494873046874,10.165780067443848,-0.5099649429321289,-0.5147533416748047
1790341553496942600,12.534942626953125,10.211270332336426,-0.6392518281936646,0.849941611289978
1790341553513388800,12.551388916015625,11.245565414428711,0.3280056416988373,-0.05985504388809204
1790341553529832200,12.567832275390625,9.08838939666748,0.7326257228851318,1.137245774269104
1790341553546275000,12.584275146484375,10.769119262695312,-0.1149216815829277,-0.05985504388809204
1790341553562718000,12.600718017578124,8.966285705566406,-0.0694318488240242,0.035913024097681046
1790341553579121400,12.617121337890625,8.358158111572266,0.05746084079146385,-0.5410895943641663
1790341553595566600,12.633566650390625,10.096348762512207,0.181959331035614,0.3687070608139038
1790341553612025600,12.650025634765624,9.813833236694336,1.280897855758667,0.29209262132644653
1790341553628473300,12.666473388671875,10.465055465698242,-0.13168109953403473,0.16759411990642548
1790341553644921600,12.682921630859376,10.414777755737305,-0.16759411990642548,-0.5746083855628967
1790341553661398800,12.699398681640625,10.47702693939209,0.17238251864910126,0.35673606395721436
1790341553677843000,12.715843017578125,10.453084945678711,-0.016759412363171577,0.17238251864910126
1790341553694287000,12.732287109375,9.17697525024414,-0.16759411990642548,-1.213860273361206
1790341553710762800,12.7487626953125,9.59596061706543,-0.29209262132644653,0.4405331015586853
1790341553727210000,12.7652099609375,10.44350814819336,1.2114660739898682,-1.1683704853057861
1790341553743658000,12.781657958984376,9.011775016784668,-0.6631938815116882,-0.751779317855835
1790341553760106200,12.798106201171874,9.75637149810791,0.5889736413955688,0.2944868206977844
1790341553776554200,12.81455419921875,9.677363395690918,0.14365209639072418,-0.10534487664699554
1790341553793003800,12.831003662109374,9.907206535339355,0.26575639843940735,-0.3471592366695404
1790341553809448200,12.8474482421875,10.414777755737305,0.5291185975074768,0.12928688526153564
1790341553825896400,12.863896484375,9.361329078674316,0.6560112833976746,0.08379705995321274
1790341553842343200,12.88034326171875,9.066842079162598,0.29209262132644653,-0.667982280254364
1790341553858793000,12.89679296875,10.790667533874512,0.1388636976480484,0.016759412363171577
1790341553875239000,12.913239013671875,10.651803016662598,0.7613561153411865,-0.0694318488240242
1790341553891686700,12.929686767578126,8.695740699768066,-0.17956513166427612,0.15322890877723694
1790341553908163800,12.946163818359375,11.042057991027832,0.7709329724311829,1.4221558570861816
1790341553924610300,12.9626103515625,11.257535934448242,0.6033388376235962,0.12210428714752197
1790341553941056300,12.97905615234375,9.509769439697266,0.44532153010368347,1.158793568611145
1790341553957464800,12.99546484375,9.311050415039062,0.15801730751991272,0.12210428714752197
1790341553973913900,13.011913818359375,9.399636268615723,0.9600749015808105,-0.2777273952960968
1790341553990363100,13.028363037109376,8.640673637390137,-0.5267243981361389,1.0845733880996704
1790341554006811000,13.044810791015625,10.36449909210205,0.49799394607543945,-0.090979665517807
1790341554023257900,13.0612578125,9.30386734008789,-0.15322890877723694,-0.8810662031173706
1790341554039704300,13.077704345703125,9.5624418258667,0.3256114423274994,1.0654197931289673
1790341554056116500,13.094116455078124,9.17697525024414,0.08619125932455063,-0.5386953949928284
1790341554072532500,13.110532470703125,9.354146003723145,0.395043283700943,-0.5841852426528931
1790341554088910000,13.12691015625,10.599130630493164,0.7613561153411865,0.646434485912323
1790341554105359000,13.143359130859375,10.412383079528809,-0.1364694982767105,0.33758243918418884
1790341554121805800,13.159805908203126,10.295066833496094,-0.22505496442317963,-0.6344634294509888
1790341554138252800,13.176252685546874,9.787496566772461,0.42377370595932007,0.44532153010368347
1790341554154722600,13.19272265625,10.778696060180664,-0.33279404044151306,-0.31364041566848755
1790341554171170600,13.209170654296875,10.805032730102539,-0.07422025501728058,-0.22505496442317963
1790341554187623000,13.225622802734375,9.907206535339355,-0.016759412363171577,0.6105214357376099
1790341554204155100,13.242155029296875,10.105925559997559,-0.11252748221158981,-0.6631938815116882
1790341554220602000,13.25860205078125,9.854534149169922,0.7589619159698486,-0.019153613597154617
1790341554237049900,13.2750498046875,10.137049674987793,0.3926490843296051,-0.181959331035614
1790341554253495300,13.291495361328124,9.840168952941895,0.2944868206977844,0.37828385829925537
1790341554269942000,13.30794189453125,10.012551307678223,0.090979665517807,0.9050082564353943
1790341554286324500,13.324324462890624,9.706093788146973,0.19871874153614044,0.28969839215278625
1790341554302770400,13.3407705078125,9.148244857788086,0.28969839215278625,0.1173158809542656
1790341554319216400,13.35721630859375,9.696516990661621,-0.05506663769483566,0.3016694188117981
1790341554335685000,13.37368505859375,8.662221908569336,0.6105214357376099,0.035913024097681046
1790341554352173600,13.390173583984375,10.848128318786621,0.23702596127986908,0.35673606395721436
1790341554368634600,13.406634521484374,9.334992408752441,0.2801215946674347,-0.17956513166427612
1790341554385077200,13.4230771484375,8.777143478393555,0.23702596127986908,-0.22505496442317963
1790341554401545200,13.439545166015625,10.560823440551758,-0.002394201699644327,0.0071826050989329815
1790341554417986300,13.455986328125,11.477803230285645,-0.26815059781074524,0.2059013396501541
1790341554434431200,13.47243115234375,8.707711219787598,0.47165772318840027,-0.08619125932455063
1790341554450900500,13.488900390625,8.75080680847168,0.6512228846549988,-0.5770025849342346
1790341554467341000,13.505341064453125,10.462661743164062,0.10055647045373917,-0.2585737705230713
1790341554483780900,13.52178076171875,9.806650161743164,-0.1628057211637497,-0.31603461503982544
1790341554500222200,13.53822216796875,8.944737434387207,-0.08858546614646912,-0.4692635238170624
1790341554516667600,13.554667724609375,10.019734382629395,-0.545877993106842,-0.38067805767059326
1790341554533114000,13.571114013671876,9.454702377319336,-0.6967126727104187,-0.304063618183136
1790341554549559000,13.58755908203125,10.17296314239502,-1.170764684677124,-0.31842881441116333
1790341554566007000,13.604007080078125,10.591948509216309,-1.3551181554794312,-0.40701428055763245
1790341554582455600,13.62045556640625,9.493009567260742,-1.0031704902648926,0.05746084079146385
1790341554598902500,13.636902587890624,9.725247383117676,-0.6584054827690125,0.8954314589500427
1790341554615351300,13.653351318359375,8.868123054504395,-0.2059013396501541,1.1875240802764893
1790341554631777000,13.669777099609375,10.390835762023926,-0.07661445438861847,2.5091233253479004
1790341554648246300,13.686246337890625,9.612719535827637,-0.5123591423034668,2.406172752380371
1790341554664689400,13.702689453125,9.308655738830566,-0.706289529800415,2.6144683361053467
1790341554681131300,13.71913134765625,9.188945770263672,-0.31364041566848755,0.026336219161748886
1790341554697604600,13.7356044921875,9.57441234588623,-0.507570743560791,-0.1149216815829277
1790341554714067000,13.75206689453125,10.254365921020508,-0.36152446269989014,0.3423708379268646
1790341554730549200,13.76854931640625,11.099518775939941,0.8403648138046265,0.33039984107017517
1790341554746998800,13.784998779296876,9.473855972290039,0.3471592366695404,-0.0071826050989329815
1790341554763476500,13.8014765625,10.326191902160645,-0.009576806798577309,0.768538773059845
1790341554779924000,13.817924072265624,10.180145263671875,-0.14844051003456116,0.6919242739677429
1790341554796378400,13.83437841796875,10.57040023803711,0.40462008118629456,0.2825157940387726
1790341554812857600,13.850857666015624,10.141838073730469,0.047884032130241394,-0.12210428714752197
1790341554829305300,13.867305419921875,10.41956615447998,0.038307227194309235,0.8331822156906128
1790341554845783000,13.883782958984375,10.18493366241455,0.7829039692878723,0.5147533416748047
1790341554862232300,13.900232421875,10.436325073242188,0.8595184087753296,0.43095630407333374
1790341554878678500,13.916678466796874,9.481039047241211,1.0869675874710083,0.9911994934082031
1790341554895148800,13.933148681640626,9.624691009521484,0.9385270476341248,0.3902548849582672
1790341554911596800,13.9495966796875,8.056488990783691,1.6687586307525635,0.14365209639072418
1790341554928072700,13.96607275390625,7.618350028991699,1.479616641998291,1.1444283723831177
1790341554944546800,13.982546875,8.884882926940918,1.3335703611373901,0.45250412821769714
1790341554960970800,13.998970703125,9.315838813781738,-0.2059013396501541,-0.14365209639072418
1790341554977380400,14.01538037109375,9.677363395690918,0.6751648783683777,0.9648633003234863
1790341554993827300,14.031827392578125,9.181763648986816,-1.3910311460494995,0.586579442024231
1790341555010305500,14.048305419921874,10.457873344421387,2.0877439975738525,0.7805097699165344
1790341555026803000,14.064802978515624,8.329427719116211,-1.3646949529647827,-0.181959331035614
1790341555043288600,14.08128857421875,10.936713218688965,1.45806884765625,0.19632454216480255
1790341555059701800,14.09770166015625,8.008605003356934,-0.7541735172271729,0.19393034279346466
1790341555076169700,14.114169677734376,10.077195167541504,0.4668693244457245,0.002394201699644327
1790341555092646700,14.130646728515625,7.843404769897461,-0.629675030708313,1.2761094570159912
1790341555109092900,14.1470927734375,11.99255657196045,0.586579442024231,0.5937620401382446
1790341555125542400,14.16354248046875,10.307038307189941,1.256955862045288,0.9768342971801758
1790341555142052600,14.180052490234376,10.393229484558105,-0.1149216815829277,0.6416460275650024
1790341555158497800,14.196497802734376,11.422736167907715,1.0582371950149536,-0.12928688526153564
1790341555174944500,14.212944580078124,9.35893440246582,-0.13407529890537262,0.6799532771110535
1790341555191419600,14.229419677734375,10.486603736877441,1.0127472877502441,0.950498104095459
1790341555207865000,14.245864990234375,9.026140213012695,-0.004788403399288654,0.07661445438861847
1790341555224309800,14.262309814453126,10.812214851379395,1.699883222579956,0.5363011956214905
1790341555240754000,14.27875390625,9.765948295593262,0.7996633648872375,0.08619125932455063
1790341555257203000,14.295202880859375,9.215282440185547,1.2497732639312744,0.17477671802043915
1790341555273652000,14.31165185546875,9.619902610778809,1.0534487962722778,0.42377370595932007
1790341555290105300,14.328105224609375,8.89685344696045,1.4437036514282227,0.950498104095459
1790341555306495500,14.34449560546875,9.102754592895508,1.5131354331970215,0.3208230137825012
1790341555322944000,14.360944091796876,9.421183586120605,1.6903064250946045,0.5722141861915588
1790341555339435000,14.37743505859375,8.585607528686523,1.0893617868423462,0.181959331035614
1790341555355931600,14.393931640625,9.373299598693848,1.2976573705673218,0.4141969084739685
1790341555372375300,14.410375244140624,9.749189376831055,2.276885747909546,0.6991068720817566
1790341555388877800,14.4268779296875,9.421183586120605,0.49799394607543945,0.3998316824436188
1790341555405347600,14.44334765625,10.551246643066406,1.3694833517074585,0.9193734526634216
1790341555421848300,14.459848388671874,9.476250648498535,0.6129156351089478,-0.035913024097681046
1790341555438372000,14.4763720703125,9.500192642211914,1.5131354331970215,0.5626373887062073
1790341555454814000,14.49281396484375,10.113107681274414,1.45806884765625,0.8068459630012512
1790341555471301600,14.509301513671875,8.865729331970215,1.5203180313110352,-0.10773907601833344
1790341555487743000,14.525742919921875,9.373299598693848,2.4133553504943848,0.6727706789970398
1790341555504186400,14.542186279296875,9.01895809173584,0.6009446382522583,-0.019153613597154617
1790341555520633000,14.558633056640625,10.079588890075684,0.8978256583213806,0.5027823448181152
1790341555537085000,14.5750849609375,9.493009567260742,1.192312479019165,0.3711012601852417
1790341555553532700,14.59153271484375,9.694122314453125,0.3998316824436188,0.4668693244457245
1790341555569981200,14.607981201171874,11.26950740814209,0.7972691655158997,0.5315127968788147
1790341555586484200,14.624484130859376,9.531316757202148,0.23702596127986908,0.3447650372982025
1790341555602969300,14.64096923828125,11.070788383483887,0.1149216815829277,0.014365210197865963
1790341555619413000,14.6574130859375,10.508151054382324,0.4357447028160095,1.0031704902648926
1790341555635867100,14.6738671875,10.390835762023926,-0.2537853717803955,-0.07900865375995636
1790341555652309500,14.6903095703125,10.3549222946167,0.10295066982507706,0.9576807022094727
1790341555668809200,14.706809326171875,9.765948295593262,0.29209262132644653,0.5410895943641663
1790341555685332000,14.72333203125,9.780313491821289,0.12210428714752197,0.3280056416988373
1790341555701778700,14.73977880859375,10.122684478759766,1.3311761617660522,0.14604631066322327
1790341555718225700,14.7562255859375,8.791508674621582,0.8523358106613159,-0.7134721279144287
1790341555734670600,14.772670654296874,8.616731643676758,0.7422025203704834,-0.30885201692581177
1790341555751116800,14.78911669921875,8.96389102935791,0.5530605912208557,-0.33039984107017517
1790341555767561500,14.8055615234375,10.441113471984863,0.2944868206977844,0.08858546614646912
1790341555784010500,14.822010498046875,10.333374977111816,0.26575639843940735,0.3663128614425659
1790341555800456700,14.838456787109376,9.962273597717285,0.45010992884635925,0.727837324142456
1790341555816906800,14.85490673828125,10.38844108581543,0.0694318488240242,1.1468225717544556
1790341555833356800,14.871356689453124,9.265560150146484,0.13168109953403473,1.0534487962722778
1790341555849806000,14.88780615234375,9.907206535339355,0.009576806798577309,1.8411411046981812
1790341555866251000,14.9042509765625,9.550470352172852,-0.7374141216278076,1.4748282432556152
1790341555882722300,14.920722412109376,10.63743782043457,-1.1300631761550903,1.4317326545715332
1790341555899169000,14.9371689453125,10.041281700134277,-1.2545616626739502,1.534683346748352
1790341555915613400,14.953613525390624,10.108319282531738,-1.6879122257232666,1.3694833517074585
1790341555932087000,14.970087158203125,10.1753568649292,-2.0207061767578125,1.015141487121582
1790341555948530700,14.98653076171875,10.47942066192627,-0.4165911078453064,-1.381454348564148
1790341555964976400,15.002976318359375,9.232041358947754,-0.5937620401382446,-1.2665326595306396
1790341555981259300,15.01925927734375,9.481039047241211,-0.2992752194404602,1.2497732639312744
1790341555997707500,15.03570751953125,9.847352027893066,-0.040701430290937424,0.20350714027881622
1790341556014176800,15.0521767578125,9.330204010009766,-0.33039984107017517,-0.019153613597154617
1790341556030661400,15.068661376953125,9.701305389404297,-0.181959331035614,1.0654197931289673
1790341556047149300,15.0851494140625,9.48343276977539,0.9313444495201111,1.170764684677124
1790341556063580000,15.101579833984376,10.81460952758789,0.5554547905921936,0.22026655077934265
1790341556080050000,15.1180498046875,8.791508674621582,-0.33758243918418884,1.1875240802764893
1790341556096494600,15.13449462890625,8.9064302444458,0.37828385829925537,1.8339585065841675
1790341556113514200,15.15151416015625,7.364564418792725,1.6855180263519287,-0.35434186458587646
1790341556129374000,15.1673740234375,11.125855445861816,-2.164358377456665,0.6392518281936646
1790341556145821400,15.183821533203124,13.61103630065918,3.8594532012939453,0.6871358752250671
1790341556162302000,15.200302001953125,10.132261276245117,-3.181894063949585,0.10534487664699554
1790341556178779600,15.216779541015624,10.247182846069336,1.8363527059555054,0.033518824726343155
1790341556195227000,15.233226806640625,9.229647636413574,1.0007762908935547,-2.849100112915039
1790341556211702800,15.249702880859376,7.383718013763428,0.49799394607543945,-3.3925838470458984
1790341556228154000,15.266154052734375,7.347805023193359,-1.7836803197860718,4.017470359802246
1790341556244634400,15.28263427734375,13.062764167785645,3.6583402156829834,2.7676970958709717
1790341556261083000,15.299082763671874,7.524975776672363,-2.5689783096313477,-2.2840683460235596
1790341556277536800,15.315536865234375,9.943120002746582,2.252943754196167,2.7892448902130127
1790341556294010600,15.3320107421875,6.993463039398193,-2.513911724090576,2.276885747909546
1790341556310456800,15.348456787109376,9.23682975769043,-0.272938996553421,-2.434903144836426
1790341556326918100,15.364918212890625,5.853823184967041,-1.6184803247451782,-0.33039984107017517
1790341556343365600,15.38136572265625,10.295066833496094,-0.05267243832349777,1.9632453918457031
1790341556359814400,15.397814453125,10.110713958740234,1.4293384552001953,-1.2497732639312744
1790341556376280300,15.4142802734375,8.987833023071289,-0.4668693244457245,1.6950948238372803
1790341556392730000,15.430730224609375,10.78348445892334,0.13407529890537262,1.314416766166687
1790341556409194500,15.447194580078126,8.11634349822998,0.2849099934101105,-0.8738836050033569
1790341556425671400,15.46367138671875,8.798690795898438,-1.558625340461731,1.213860273361206
1790341556442120400,15.480120361328124,4.000710964202881,-5.432443618774414,2.363077163696289
1790341556458569500,15.496569580078125,14.611812591552734,2.078166961669922,3.272873640060425
1790341556475012600,15.5130126953125,13.816938400268555,-3.488351821899414,0.10055647045373917
1790341556491462100,15.529462158203126,9.682151794433594,0.3471592366695404,-1.6974890232086182
1790341556507909400,15.545909423828125,10.843339920043945,1.2641384601593018,-1.2258312702178955
1790341556524365300,15.562365234375,6.67982292175293,-3.3255462646484375,1.1109095811843872
1790341556540863500,15.578863525390625,9.873687744140625,-1.0773907899856567,-4.642356872558594
1790341556557313500,15.5953134765625,10.067618370056152,3.6583402156829834,-2.2242133617401123
1790341556573792300,15.611792236328125,7.709329605102539,-2.1140801906585693,3.117250680923462
1790341556590206200,15.628206298828125,17.108964920043945,-2.3319525718688965,1.8818424940109253
1790341556606617000,15.6446171875,7.886500358581543,-2.298433542251587,-0.8762778043746948
1790341556623083000,15.6610830078125,10.122684478759766,1.0079588890075684,2.940079689025879
1790341556639535000,15.67753515625,8.944737434387207,-0.569819986820221,-1.1563993692398071
1790341556655918000,15.69391796875,9.44752025604248,1.3479355573654175,-2.9089550971984863
1790341556672396300,15.710396240234376,7.967903137207031,-1.4484920501708984,2.3343467712402344
1790341556688861400,15.726861328125,9.320627212524414,-0.1173158809542656,-1.2617442607879639
1790341556705366500,15.743366455078124,10.247182846069336,-0.47644615173339844,-0.9409212470054626
1790341556721831400,15.75983154296875,9.988609313964844,-0.6009446382522583,2.7461493015289307
1790341556738277600,15.776277587890625,9.543288230895996,0.5195417404174805,-0.6057330369949341
1790341556754722000,15.79272216796875,9.210494041442871,0.22505496442317963,0.7230489253997803
1790341556771170600,15.809170654296874,9.619902610778809,-0.3423708379268646,1.2066776752471924
1790341556787691000,15.82569091796875,10.213664054870605,0.3064578175544739,0.06464344263076782
1790341556804179700,15.8421796875,9.761159896850586,-0.2059013396501541,0.9696516990661621
1790341556820649000,15.85864892578125,9.749189376831055,0.0454898327589035,0.9385270476341248
1790341556837143300,15.875143310546875,9.86889934539795,0.2059013396501541,0.08379705995321274
1790341556853612500,15.891612548828125,9.184157371520996,-0.6943184733390808,0.6320692300796509
1790341556870111000,15.908111083984375,11.204863548278809,0.272938996553421,0.6751648783683777
1790341556886599200,15.92459912109375,9.947908401489258,-0.031124621629714966,-0.21787235140800476
1790341556903065300,15.9410654296875,10.125079154968262,0.1604115068912506,0.10534487664699554
1790341556919590000,15.95758984375,10.019734382629395,0.5339069962501526,0.9385270476341248
1790341556936069600,15.974069580078124,9.402029991149902,0.24420857429504395,-0.14604631066322327
1790341556952523300,15.990523193359374,10.462661743164062,0.40940847992897034,0.5195417404174805
1790341556969011200,16.00701123046875,10.261548042297363,0.6799532771110535,0.07182604819536209
1790341556985539600,16.02353955078125,10.04846477508545,0.0933738648891449,0.17477671802043915
1790341557002036000,16.040035888671873,10.778696060180664,-0.17477671802043915,0.5961562395095825
1790341557018520000,16.05652001953125,11.02051067352295,-0.2968810200691223,1.2258312702178955
1790341557035003600,16.073003662109375,9.172186851501465,0.5386953949928284,-0.45250412821769714
1790341557051490800,16.08949072265625,9.557653427124023,0.0694318488240242,1.0007762908935547
1790341557067925000,16.105925048828126,9.375694274902344,0.22744916379451752,0.6320692300796509
1790341557084344000,16.122343994140625,9.3828763961792,-0.5267243981361389,-0.8307880163192749
1790341557100874200,16.138874267578124,10.002974510192871,0.35913026332855225,1.5083470344543457
1790341557117388300,16.15538818359375,9.926360130310059,-0.6847416758537292,0.8044517636299133
1790341557133877500,16.17187744140625,10.053253173828125,0.17956513166427612,0.3974374830722809
1790341557150379000,16.18837890625,9.059659004211426,-0.730231523513794,1.1827356815338135
1790341557166905000,16.204905029296874,9.885659217834473,0.33997663855552673,-0.26815059781074524
1790341557183383800,16.2213837890625,9.694122314453125,0.17238251864910126,-0.17477671802043915
1790341557199870700,16.23787060546875,10.335768699645996,-0.24660277366638184,0.5315127968788147
1790341557216358100,16.254358154296874,10.230423927307129,0.3758896589279175,-0.021547814831137657
1790341557232858600,16.270858642578126,9.605537414550781,0.12928688526153564,0.42616790533065796
1790341557249353000,16.28735302734375,10.292673110961914,0.36152446269989014,1.1516109704971313
1790341557265838800,16.3038388671875,8.305485725402832,-0.5315127968788147,0.3280056416988373
1790341557282323500,16.320323486328125,10.69489860534668,0.3256114423274994,0.6105214357376099
1790341557298809000,16.33680908203125,10.44350814819336,-0.5219359993934631,0.6871358752250671
1790341557315323400,16.353323486328126,11.101913452148438,0.8786720037460327,1.0893617868423462
1790341557331863000,16.369863037109376,8.93037223815918,0.3016694188117981,-0.6224924325942993
1790341557348339500,16.38633935546875,7.536946773529053,-1.1994950771331787,1.5538369417190552
1790341557364829000,16.402828857421873,10.335768699645996,0.8092401623725891,2.671929121017456
1790341557381291500,16.41929150390625,8.391676902770996,-0.9624691009521484,-0.7350199222564697
1790341557397793300,16.435793212890626,11.068394660949707,1.316810965538025,0.790086567401886
1790341557414278700,16.452278564453124,8.75080680847168,-0.4884171485900879,2.140416383743286
1790341557430729500,16.4687294921875,8.339004516601562,-1.0654197931289673,0.12689268589019775
1790341557447174700,16.485174560546874,9.361329078674316,0.912190854549408,0.9720458984375
1790341557463654700,16.501654541015625,9.289502143859863,-1.1180921792984009,0.6344634294509888
1790341557480156700,16.51815673828125,11.219228744506836,1.1492167711257935,-0.4644751250743866
1790341557496651300,16.5346513671875,10.625467300415039,0.5770025849342346,2.2433669567108154
1790341557513115100,16.551115234375,9.35893440246582,-1.1276689767837524,-0.0694318488240242
1790341557529634000,16.567634033203124,10.067618370056152,0.026336219161748886,-0.17717093229293823
1790341557546097700,16.58409765625,9.660603523254395,-1.8148049116134644,1.359906554222107
1790341557562602000,16.60060205078125,10.690110206604004,0.8020575642585754,-0.17477671802043915
1790341557579099100,16.61709912109375,7.8098859786987305,-0.5793967843055725,0.18914192914962769
1790341557595584300,16.633584228515623,9.217676162719727,0.2298433631658554,0.5363011956214905
1790341557612156200,16.65015625,10.17296314239502,-0.40940847992897034,-0.33758243918418884
1790341557628646000,16.66664599609375,10.520122528076172,0.7015010714530945,0.5889736413955688
1790341557645150700,16.683150634765624,9.006986618041992,-0.7805097699165344,0.2537853717803955
1790341557661626000,16.699626220703124,9.890447616577148,0.14604631066322327,-0.5363011956214905
1790341557678092800,16.7160927734375,9.224859237670898,-0.9313444495201111,0.5386953949928284
1790341557694583800,16.732583740234375,9.768342971801758,0.10295066982507706,2.0638017654418945
1790341557711072500,16.749072509765625,9.66299819946289,-1.0055646896362305,0.42856210470199585
1790341557727563000,16.76556298828125,11.109095573425293,0.3902548849582672,2.3080103397369385
1790341557744058400,16.782058349609375,8.480262756347656,-0.8451532125473022,-0.002394201699644327
1790341557760540400,16.79854052734375,9.974244117736816,0.7996633648872375,1.161187767982483
1790341557777061400,16.815061279296874,8.329427719116211,-1.2737152576446533,-0.08619125932455063
1790341557793548800,16.831548828125,10.491392135620117,0.05267243832349777,1.3766659498214722
1790341557810051300,16.84805126953125,9.35893440246582,-0.9552865028381348,-0.12689268589019775
1790341557826509600,16.864509521484376,10.96544361114502,0.4812345504760742,0.1173158809542656
1790341557842988500,16.880988525390624,10.812214851379395,-0.05746084079146385,1.0031704902648926
1790341557859532300,16.8975322265625,9.59835433959961,0.545877993106842,-1.192312479019165
1790341557876015900,16.914015869140623,10.747570991516113,0.7924807667732239,0.9169792532920837
1790341557892482300,16.930482421875,9.775525093078613,0.009576806798577309,0.26336219906806946
1790341557909004000,16.947004150390626,10.778696060180664,0.6727706789970398,0.31842881441116333
1790341557925479400,16.9634794921875,11.413159370422363,-0.1388636976480484,0.5147533416748047
1790341557941961000,16.9799609375,9.876082420349121,0.17717093229293823,0.629675030708313
1790341557958443300,16.996443359375,9.48343276977539,0.40940847992897034,0.40701428055763245
1790341557974895900,17.012895751953124,8.33182144165039,-0.6272808313369751,0.7110779285430908
1790341557991387400,17.029387451171875,9.318233489990234,0.0694318488240242,0.2106897532939911
1790341558007873800,17.045873779296876,10.029311180114746,0.023942016065120697,0.24660277366638184
1790341558024394800,17.062394775390626,9.648633003234863,-0.272938996553421,0.28730419278144836
1790341558040881700,17.078881591796875,10.65898609161377,0.15562310814857483,1.2449848651885986
1790341558057348000,17.09534814453125,9.272743225097656,-0.29209262132644653,0.9768342971801758
1790341558073839600,17.111839599609375,9.011775016784668,-0.17477671802043915,-0.40701428055763245
1790341558090257400,17.12825732421875,9.275136947631836,-0.2825157940387726,0.6344634294509888
1790341558106840800,17.1448408203125,9.931148529052734,-0.22026655077934265,0.2082955539226532
1790341558123326700,17.16132666015625,10.405200958251953,-0.35673606395721436,0.38067805767059326
1790341558139827500,17.177827392578124,10.08198356628418,-0.028730420395731926,0.9768342971801758
1790341558156354300,17.194354248046874,8.935160636901855,0.29209262132644653,0.8762778043746948
1790341558172835800,17.2108359375,9.01895809173584,-0.35673606395721436,0.47644615173339844
1790341558189312000,17.22731201171875,10.54406452178955,0.08379705995321274,1.1420341730117798
1790341558205797600,17.243797607421875,9.306262016296387,-0.047884032130241394,-0.5027823448181152
1790341558222262800,17.2602626953125,9.555258750915527,0.4668693244457245,0.3998316824436188
1790341558238719500,17.276719482421875,9.119514465332031,-0.40940847992897034,1.6376339197158813
1790341558255202800,17.293202880859376,9.512163162231445,0.3423708379268646,-0.2322375625371933
1790341558271723500,17.3097236328125,9.737217903137207,-0.4836287498474121,0.7757213711738586
1790341558288212700,17.326212646484375,9.57441234588623,-0.22744916379451752,0.5913678407669067
1790341558304712700,17.342712646484376,9.524134635925293,0.014365210197865963,0.1867477297782898
1790341558321167600,17.359167724609375,9.224859237670898,0.26336219906806946,0.9911994934082031
1790341558337683200,17.37568310546875,10.110713958740234,1.1516109704971313,0.8331822156906128
1790341558354193400,17.392193359375,8.999804496765137,-0.5961562395095825,0.507570743560791
1790341558370684200,17.40868408203125,9.794678688049316,0.706289529800415,0.05267243832349777
1790341558387186000,17.42518603515625,9.773131370544434,-0.6368576288223267,1.0462661981582642
1790341558403674600,17.441674560546875,9.830592155456543,0.9959878921508789,-0.33039984107017517
1790341558420153000,17.458153076171875,9.39245319366455,-0.35673606395721436,0.9744400978088379
1790341558436672500,17.474672607421876,11.226411819458008,0.14844051003456116,0.3280056416988373
1790341558453160700,17.49116064453125,10.81460952758789,-0.07900865375995636,1.1851298809051514
1790341558469661200,17.5076611328125,10.180145263671875,-0.7709329724311829,0.1628057211637497
1790341558486121700,17.524121826171875,10.256759643554688,-0.2106897532939911,0.9528923034667969
1790341558502605300,17.540605224609376,10.395624160766602,-0.2968810200691223,0.019153613597154617
1790341558519108000,17.557108154296873,9.533711433410645,1.036689281463623,0.24660277366638184
1790341558535594500,17.573594482421875,9.516951560974121,0.7876923680305481,0.395043283700943
1790341558552063500,17.5900634765625,10.11550235748291,-0.2513911724090576,-0.31364041566848755
1790341558568524800,17.60652490234375,11.528080940246582,0.9074024558067322,1.601720929145813
1790341558585004800,17.6230048828125,9.485827445983887,-0.040701430290937424,0.0694318488240242
1790341558601547300,17.63954736328125,9.440337181091309,0.4405331015586853,0.05027823522686958
1790341558618033700,17.65603369140625,9.126696586608887,-0.40462008118629456,0.7134721279144287
1790341558634535000,17.672534912109374,10.244789123535156,0.7326257228851318,-0.2585737705230713
1790341558651061500,17.6890615234375,9.696516990661621,-0.5578489899635315,0.2801215946674347
1790341558667529500,17.705529541015625,9.744400978088379,-0.40462008118629456,0.49799394607543945
1790341558683993900,17.721993896484374,9.761159896850586,0.24660277366638184,0.4884171485900879
1790341558700483800,17.73848388671875,9.050082206726074,-0.5195417404174805,0.6512228846549988
1790341558716952600,17.75495263671875,10.029311180114746,0.586579442024231,0.9624691009521484
1790341558733415400,17.77141552734375,8.341399192810059,-0.2849099934101105,-0.1364694982767105
1790341558749902000,17.787902099609376,9.792284965515137,-0.12449848651885986,0.36152446269989014
1790341558766357800,17.804357666015626,10.304644584655762,-0.28969839215278625,1.8387469053268433
1790341558782822000,17.82082177734375,9.981427192687988,-0.17238251864910126,-0.20111294090747833
1790341558799320600,17.837320556640623,9.528923034667969,-0.31603461503982544,0.7086837291717529
1790341558815813600,17.853813720703126,10.350133895874023,-0.05027823522686958,0.7781155705451965
1790341558832295400,17.87029541015625,10.278307914733887,0.6129156351089478,0.15801730751991272
1790341558848828000,17.886827880859375,8.968679428100586,-0.6823474764823914,0.8595184087753296
1790341558865316400,17.90331640625,10.347740173339844,0.7829039692878723,0.569819986820221
1790341558881823200,17.9198232421875,8.544905662536621,-0.7230489253997803,0.22744916379451752
1790341558898319600,17.936319580078123,9.493009567260742,0.3998316824436188,0.016759412363171577
1790341558914804200,17.95280419921875,8.094796180725098,-0.5363011956214905,0.6248866319656372
1790341558931295000,17.969294921875,10.8720703125,-0.1604115068912506,-0.6991068720817566
1790341558947773700,17.985773681640627,11.377246856689453,0.24899697303771973,1.0319008827209473
1790341558964274700,18.002274658203124,10.072406768798828,0.016759412363171577,0.9241618514060974
1790341558980734500,18.018734375,10.098742485046387,0.07182604819536209,-0.31124621629714966
1790341558997221600,18.0352216796875,9.454702377319336,0.40701428055763245,1.5083470344543457
1790341559013683700,18.05168359375,9.765948295593262,-0.3902548849582672,0.7206547260284424
1790341559030173400,18.06817333984375,9.387664794921875,-0.10773907601833344,-0.23942017555236816
1790341559046677200,18.08467724609375,9.765948295593262,0.1412578970193863,1.2521674633026123
1790341559063110000,18.10110986328125,9.342175483703613,-0.17477671802043915,0.7350199222564697
1790341559079592200,18.11759228515625,8.635885238647461,-0.4118026793003082,-0.8858546018600464
1790341559096081700,18.13408154296875,10.333374977111816,-0.2322375625371933,0.9409212470054626
1790341559112577000,18.150576904296877,9.888052940368652,-0.33039984107017517,0.5339069962501526
1790341559129085000,18.1670849609375,9.385271072387695,-0.18914192914962769,-1.1994950771331787
1790341559145561300,18.183561279296875,10.065223693847656,-0.07900865375995636,1.5131354331970215
1790341559162045000,18.200044921875,9.263166427612305,-0.31124621629714966,0.12449848651885986
1790341559178567400,18.2165673828125,9.53849983215332,-0.23702596127986908,-0.47405192255973816
1790341559195056400,18.233056396484375,9.552865028381348,-0.011971008032560349,0.545877993106842
1790341559211560200,18.249560302734373,10.278307914733887,-0.15562310814857483,0.6751648783683777
1790341559228057000,18.26605712890625,10.278307914733887,0.47405192255973816,0.021547814831137657
1790341559244547300,18.28254736328125,9.914389610290527,0.09576806426048279,0.4908113479614258
1790341559261073700,18.29907373046875,10.041281700134277,-0.6919242739677429,0.8475474119186401
1790341559277565200,18.315565185546873,10.481815338134766,0.8140285611152649,-0.8212111592292786
1790341559294073900,18.332073974609376,9.289502143859863,-1.3862427473068237,0.524330198764801
1790341559310574000,18.348573974609376,10.134655952453613,0.06224924325942993,0.6943184733390808
1790341559327037400,18.365037353515625,10.101137161254883,0.5051765441894531,0.047884032130241394
1790341559343557400,18.381557373046874,8.98543930053711,-1.1085153818130493,0.1173158809542656
1790341559360001300,18.398001220703126,10.445901870727539,-0.24420857429504395,0.272938996553421
1790341559376479200,18.414479248046874,1.5466543436050415,-1.886630892753601,-0.004788403399288654
1790341559392953900,18.430953857421876,9.01895809173584,0.31842881441116333,-0.22026655077934265
1790341559409398500,18.4473984375,11.791443824768066,-2.2146365642547607,0.8643068075180054
1790341559425844700,18.4638447265625,11.456254959106445,-2.0015525817871094,-0.33997663855552673
1790341559442288000,18.4802880859375,11.27190113067627,-1.8339585065841675,0.706289529800415
1790341559458732800,18.49673291015625,10.8720703125,-1.5514427423477173,0.7613561153411865
1790341559475177700,18.513177734375,10.141838073730469,-1.534683346748352,0.5530605912208557
1790341559491625700,18.529625732421874,10.065223693847656,-0.7781155705451965,0.8643068075180054
1790341559508102400,18.546102294921877,8.89445972442627,-0.7493851184844971,0.23702596127986908
1790341559524547000,18.562547119140625,7.682993412017822,-1.3239935636520386,1.2545616626739502
1790341559541043000,18.57904296875,10.139444351196289,-0.7589619159698486,-0.8571242094039917
1790341559557508600,18.595508544921874,10.24000072479248,-0.667982280254364,0.19153612852096558
1790341559573992700,18.61199267578125,10.438719749450684,-1.0558429956436157,0.912190854549408
1790341559590464800,18.62846484375,8.767566680908203,-0.4596867263317108,-0.07900865375995636
1790341559606912800,18.644912841796874,8.863334655761719,-1.194706678390503,0.828393816947937
1790341559623398100,18.661398193359375,10.070012092590332,-1.6855180263519287,-0.3016694188117981
1790341559639871700,18.677871826171874,10.278307914733887,-0.689530074596405,0.9672574996948242
1790341559656331800,18.694331787109373,10.541669845581055,-1.3335703611373901,0.10773907601833344
1790341559672823600,18.710823486328124,9.861717224121094,-1.0582371950149536,0.3902548849582672
1790341559689209300,18.727209228515626,9.35893440246582,-1.1851298809051514,0.11971008777618408
1790341559705684500,18.7436845703125,9.737217903137207,-1.094150185585022,0.7948749661445618
1790341559722129400,18.76012939453125,10.623072624206543,-0.3495534360408783,0.8930372595787048
1790341559738579200,18.7765791015625,9.153033256530762,-1.5203180313110352,0.047884032130241394
1790341559755052500,18.793052490234373,10.070012092590332,-0.48602294921875,0.9145850539207458
1790341559771521500,18.809521484375,10.010157585144043,-0.9911994934082031,0.3758896589279175
1790341559787992000,18.825991943359377,9.169792175292969,-0.7158663272857666,0.11252748221158981
1790341559804489000,18.842489013671877,9.289502143859863,-0.7972691655158997,0.6248866319656372
1790341559820971000,18.858970947265625,8.348581314086914,-1.659181833267212,0.019153613597154617
1790341559837485000,18.875485107421873,11.125855445861816,-0.6536170840263367,1.048660397529602
1790341559853973200,18.89197314453125,9.864110946655273,-1.2042834758758545,-0.6943184733390808
1790341559870475000,18.90847509765625,9.428366661071777,-0.6584054827690125,0.1604115068912506
1790341559886970000,18.92497021484375,9.07641887664795,-1.5083470344543457,0.706289529800415
1790341559903460000,18.941460205078126,10.022128105163574,-1.1300631761550903,-0.7374141216278076
1790341559919989000,18.957989013671874,9.895236015319824,-1.1444283723831177,0.5027823448181152
1790341559936487400,18.9744873046875,8.971074104309082,-0.6560112833976746,-0.12689268589019775
1790341559952959000,18.990958984375,9.284713745117188,-1.5275006294250488,0.3902548849582672
1790341559969456600,19.00745654296875,10.668562889099121,-1.4915876388549805,-0.4596867263317108
1790341559985909500,19.023909423828126,10.986991882324219,-1.1971008777618408,0.31364041566848755
1790341560002360300,19.0403603515625,9.852140426635742,-1.0079588890075684,0.33997663855552673
1790341560018774500,19.0567744140625,9.6989107131958,0.1149216815829277,0.6344634294509888
1790341560035280100,19.073280029296875,7.793126583099365,-0.751779317855835,-0.1412578970193863
1790341560051666700,19.089666748046874,9.976638793945312,0.16759411990642548,0.2082955539226532
1790341560068081700,19.10608154296875,9.349357604980469,-0.6967126727104187,0.5219359993934631
1790341560084591400,19.12259130859375,10.826580047607422,-1.678335428237915,0.5051765441894531
1790341560101039900,19.139039794921874,10.362105369567871,-0.45010992884635925,-0.6224924325942993
1790341560117517600,19.155517578125,9.765948295593262,-1.2497732639312744,0.021547814831137657
1790341560134045200,19.172045166015625,9.847352027893066,-0.5003881454467773,0.5123591423034668
1790341560150531300,19.18853125,9.62947940826416,-0.9864110946655273,-0.08379705995321274
1790341560167056000,19.205055908203125,10.699687004089355,-0.8092401623725891,0.8643068075180054
1790341560183545300,19.22154541015625,10.723628997802734,-0.4620809257030487,0.07182604819536209
1790341560200051500,19.238051513671873,9.57441234588623,-0.6727706789970398,-0.12449848651885986
1790341560216549400,19.25454931640625,9.603142738342285,-0.49320554733276367,-0.811634361743927
1790341560233041000,19.271041015625,9.406818389892578,-1.98958158493042,-0.002394201699644327
1790341560249565400,19.2875654296875,10.393229484558105,0.026336219161748886,0.3495534360408783
1790341560266056000,19.304055908203125,10.424354553222656,-0.8092401623725891,0.2298433631658554
1790341560282559200,19.320559326171875,10.204087257385254,-0.8020575642585754,-0.2968810200691223
1790341560299055400,19.337055419921874,9.282320022583008,-0.6823474764823914,-0.05506663769483566
1790341560315538400,19.353538330078123,9.904812812805176,-1.0007762908935547,0.40940847992897034
1790341560332087600,19.370087646484375,9.548076629638672,-0.6847416758537292,-0.7541735172271729
1790341560348574700,19.38657470703125,9.255983352661133,-1.113303780555725,0.5195417404174805
1790341560365011200,19.40301123046875,9.725247383117676,-0.6871358752250671,0.13407529890537262
1790341560381536500,19.41953662109375,9.612719535827637,-1.0678139925003052,0.016759412363171577
1790341560398019600,19.43601953125,9.023746490478516,-1.659181833267212,-0.17238251864910126
1790341560414540800,19.452540771484376,10.5344877243042,-0.524330198764801,0.19632454216480255
1790341560431028700,19.46902880859375,9.883264541625977,-0.9289502501487732,0.4405331015586853
1790341560447529700,19.48552978515625,9.976638793945312,-0.9840168952941895,-0.5482721924781799
1790341560464025900,19.50202587890625,10.074800491333008,-1.2066776752471924,0.6009446382522583
1790341560480514000,19.51851416015625,9.928754806518555,-0.8427590131759644,-0.6368576288223267
1790341560497037300,19.535037353515627,9.339780807495117,-1.8267759084701538,0.12449848651885986
1790341560513527800,19.55152783203125,9.38048267364502,-1.525106430053711,-0.35434186458587646
1790341560529998300,19.567998291015623,9.57441234588623,-1.3048399686813354,0.2944868206977844
1790341560546497500,19.58449755859375,9.603142738342285,-1.9033904075622559,0.15083470940589905
1790341560562955300,19.600955322265627,10.78348445892334,-1.2066776752471924,-0.5913678407669067
1790341560579506200,19.617506103515623,9.823410034179688,-0.9911994934082031,0.5937620401382446
1790341560595995400,19.633995361328125,9.892841339111328,-0.8212111592292786,-0.7015010714530945
1790341560612496100,19.65049609375,9.119514465332031,-1.2066776752471924,-0.40222588181495667
1790341560629039600,19.66703955078125,9.593565940856934,-1.05105459690094,0.31364041566848755
1790341560645520600,19.683520751953125,9.9000244140625,-0.7350199222564697,-0.6943184733390808
1790341560662042000,19.7000419921875,9.768342971801758,-1.1468225717544556,0.06703764945268631
1790341560678532000,19.716531982421873,9.794678688049316,-1.1180921792984009,-0.5817909836769104
1790341560694979800,19.732979736328126,10.067618370056152,-0.45010992884635925,-0.17956513166427612
1790341560711447800,19.74944775390625,9.746794700622559,-0.912190854549408,-0.10055647045373917
1790341560727942400,19.7659423828125,9.533711433410645,-1.580173134803772,-0.6368576288223267
1790341560744469200,19.78246923828125,9.713275909423828,-0.4692635238170624,0.12689268589019775
1790341560760958500,19.79895849609375,9.239224433898926,-1.4724340438842773,-0.26096799969673157
1790341560777460700,19.815460693359373,10.441113471984863,-0.6751648783683777,-0.3663128614425659
1790341560793957600,19.83195751953125,9.361329078674316,-1.3670891523361206,0.5841852426528931
1790341560810441200,19.848441162109374,9.981427192687988,-1.2114660739898682,-0.706289529800415
1790341560826988300,19.86498828125,10.08198356628418,-0.7948749661445618,0.24181437492370605
1790341560843475000,19.881474853515623,9.909601211547852,-0.8475474119186401,0.18914192914962769
1790341560859978000,19.89797802734375,10.20648193359375,-0.7398083209991455,-0.3256114423274994
1790341560876470800,19.914470703125,10.441113471984863,-0.40222588181495667,-0.507570743560791
1790341560892927000,19.930927001953126,9.524134635925293,-1.0821791887283325,0.7158663272857666
1790341560909412000,19.947412109375,10.139444351196289,-0.6416460275650024,-0.05506663769483566
1790341560925902300,19.96390234375,9.775525093078613,-1.2545616626739502,-0.2825157940387726
1790341560942405000,19.980405029296875,9.943120002746582,-0.9265560507774353,0.43335050344467163
1790341560958902000,19.996902099609375,9.895236015319824,-0.5793967843055725,-0.21547815203666687
1790341560975392000,20.01339208984375,9.691728591918945,-1.091755986213684,-0.5650315880775452
1790341560991916000,20.029916015625,10.04846477508545,-1.0773907899856567,0.5722141861915588
1790341561008405200,20.0464052734375,10.268731117248535,-0.7781155705451965,-0.1149216815829277
1790341561024876000,20.0628759765625,9.38048267364502,-0.933738648891449,-0.8020575642585754
1790341561041277400,20.07927734375,8.829815864562988,-1.2114660739898682,0.31124621629714966
1790341561057746400,20.095746337890624,8.851364135742188,-1.479616641998291,-0.8571242094039917
1790341561074261000,20.112260986328124,10.218452453613281,-0.5003881454467773,-0.5506663918495178
1790341561090750200,20.128750244140626,9.172186851501465,-0.8738836050033569,0.3256114423274994
1790341561106224400,20.144224365234376,10.970232009887695,-0.48602294921875,-0.33039984107017517
1790341561122618600,20.16061865234375,9.9000244140625,-0.8451532125473022,0.26336219906806946
1790341561139101400,20.177101318359377,9.524134635925293,-1.192312479019165,0.24899697303771973
1790341561155588600,20.193588623046875,9.93354320526123,-0.4429273009300232,-0.1364694982767105
1790341561172075500,20.210075439453124,9.368511199951172,-1.2832920551300049,0.0071826050989329815
1790341561188575000,20.226574951171877,10.002974510192871,-0.5506663918495178,-0.3423708379268646
1790341561205068000,20.243068115234376,9.119514465332031,-0.9672574996948242,0.05506663769483566
1790341561221555500,20.259555419921874,9.210494041442871,-1.5155296325683594,-0.5386953949928284
1790341561238045200,20.276045166015624,9.928754806518555,-1.194706678390503,0.6344634294509888
1790341561254529800,20.29252978515625,9.591172218322754,-1.1300631761550903,-0.33039984107017517
1790341561271032800,20.30903271484375,9.41400146484375,-1.4053963422775269,-0.20350714027881622
1790341561287530000,20.325530029296875,9.90241813659668,-0.7733271718025208,0.1364694982767105
1790341561304009000,20.342009033203126,9.976638793945312,-0.06464344263076782,-0.22505496442317963
1790341561320519200,20.358519287109374,9.265560150146484,-1.173158884048462,-0.45489832758903503
1790341561337003300,20.375003173828127,10.32858657836914,-0.20111294090747833,0.395043283700943
1790341561353501400,20.39150146484375,9.703699111938477,-0.8259995579719543,-0.545877993106842
1790341561369906200,20.40790625,9.926360130310059,-0.19393034279346466,-0.524330198764801
1790341561386382800,20.4243828125,9.603142738342285,0.2944868206977844,0.20350714027881622
1790341561402899500,20.4408994140625,9.746794700622559,-0.7852981686592102,-0.3519476354122162
1790341561419366000,20.457365966796875,10.644620895385742,0.2106897532939911,-0.2968810200691223
1790341561435863800,20.47386376953125,9.397241592407227,-0.7829039692878723,-0.0933738648891449
1790341561452356000,20.490356201171874,9.967061996459961,-0.49559974670410156,-0.1628057211637497
1790341561468842800,20.5068427734375,10.381258964538574,0.26815059781074524,-0.4692635238170624
1790341561485361700,20.523361572265625,9.62947940826416,-0.5123591423034668,-0.1867477297782898
1790341561501847000,20.539846923828126,10.170568466186523,-0.1843535304069519,-0.44532153010368347
1790341561518342700,20.5563427734375,9.418789863586426,-0.3926490843296051,-0.1173158809542656
1790341561534831600,20.57283154296875,9.677363395690918,-0.2849099934101105,-0.608127236366272
1790341561551314700,20.589314697265625,9.825803756713867,0.4572925269603729,0.2585737705230713
1790341561567825200,20.6058251953125,9.124302864074707,-0.5530605912208557,-0.6823474764823914
1790341561584309500,20.6223095703125,9.641449928283691,-0.35913026332855225,-0.5937620401382446
1790341561600809000,20.63880908203125,9.667786598205566,-0.6536170840263367,0.22266076505184174
1790341561617299700,20.6552998046875,11.058817863464355,0,-0.040701430290937424
1790341561633686800,20.671686767578127,10.031704902648926,-0.033518824726343155,0.06703764945268631
1790341561650139000,20.688138916015625,9.670180320739746,-0.3016694188117981,-0.1149216815829277
1790341561666624300,20.704624267578126,10.642226219177246,0.047884032130241394,-0.45250412821769714
1790341561683123000,20.721123046875,9.009381294250488,-0.6057330369949341,-0.9552865028381348
1790341561699616000,20.737615966796874,9.009381294250488,-0.44771572947502136,-0.6320692300796509
1790341561715074300,20.75307421875,9.514557838439941,0.5961562395095825,-0.8068459630012512
1790341561731559200,20.76955908203125,9.11233139038086,-0.6416460275650024,-0.5099649429321289
1790341561748043300,20.786043212890625,10.156203269958496,0.36152446269989014,-0.3016694188117981
1790341561764508400,20.80250830078125,9.248801231384277,-0.9265560507774353,-0.22505496442317963
1790341561780965000,20.818965087890625,10.558429718017578,0.2777273952960968,-0.44532153010368347
1790341561797441300,20.835441162109376,9.928754806518555,-0.28730419278144836,-0.16759411990642548
1790341561813985800,20.85198583984375,9.854534149169922,-0.37828385829925537,0.09576806426048279
1790341561830469400,20.868469482421876,10.165780067443848,0.6871358752250671,-1.1492167711257935
1790341561846930400,20.884930419921876,8.604761123657227,-0.7206547260284424,-0.6440402865409851
1790341561863451100,20.901451171875,9.86889934539795,0.9672574996948242,0.27054479718208313
1790341561879892200,20.917892333984376,9.75637149810791,0.047884032130241394,-0.3256114423274994
1790341561896337200,20.934337158203125,9.75637149810791,0.689530074596405,-1.4628572463989258
1790341561912780300,20.9507802734375,10.836156845092773,-0.7757213711738586,0.8786720037460327
1790341561929266400,20.967266357421874,10.711658477783203,0.8738836050033569,-1.764526605606079
1790341561945739300,20.9837392578125,10.884040832519531,-0.3064578175544739,2.1356279850006104
1790341561962199800,21.00019970703125,8.305485725402832,-0.16519992053508759,0.4668693244457245
1790341561978667300,21.016667236328125,10.44350814819336,2.655169725418091,-2.494758129119873
1790341561995106600,21.0331064453125,7.927201747894287,-0.8571242094039917,3.1435868740081787
