time,seconds_elapsed,z,y,x
1790341541084665300,0.122665283203125,1.0480842590332031,1.0120429992675781,0.21842527389526367
1790341541101071000,0.139071044921875,0.9894490242004395,0.8688178062438965,0.10235905647277832
1790341541117539800,0.155539794921875,0.8491253852844238,0.8206372261047363,0.18222498893737793
1790341541134009300,0.17200927734375,0.8436989784240723,0.7285246849060059,0.28001832962036133
1790341541150503000,0.1885029296875,0.7896947860717773,0.5379290580749512,0.34409165382385254
1790341541166972200,0.20497216796875,0.46251392364501953,0.4045238494873047,0.4486476182937622
1790341541183443200,0.221443115234375,0.2706880569458008,0.3558807373046875,0.47057044506073
1790341541199942100,0.237942138671875,-0.0348358154296875,0.3023242950439453,0.2190866470336914
1790341541216413700,0.25441357421875,-0.3218979835510254,0.22100067138671875,-0.18265962600708008
1790341541232913400,0.270913330078125,-0.47759437561035156,0.23571395874023438,-0.44307994842529297
1790341541249385000,0.287385009765625,-0.6510295867919922,0.34408140182495117,-0.4630885124206543
1790341541265780500,0.303780517578125,-0.8072648048400879,0.38193464279174805,-0.3357236385345459
1790341541282278700,0.320278564453125,-0.7839856147766113,0.3895564079284668,-0.13554096221923828
1790341541298744300,0.336744384765625,-0.4474453926086426,0.36870765686035156,0.0030367374420166016
1790341541315183400,0.353183349609375,0.12059640884399414,0.14255666732788086,-0.027819156646728516
1790341541331646700,0.369646728515625,0.5391659736633301,-0.11333036422729492,-0.1410198211669922
1790341541348109800,0.38610986328125,0.5535216331481934,-0.2917184829711914,-0.35992884635925293
1790341541364627700,0.402627685546875,0.3741283416748047,-0.2538108825683594,-0.5208542346954346
1790341541381088800,0.4190888671875,0.3138847351074219,-0.12190771102905273,-0.4634106159210205
1790341541397578800,0.435578857421875,0.2633347511291504,-0.031934261322021484,-0.3642411231994629
1790341541414012200,0.45201220703125,-0.07430076599121094,0.35937929153442383,-0.20500588417053223
1790341541430441500,0.46844140625,-0.20418405532836914,0.6933903694152832,-0.08594179153442383
1790341541446928000,0.484927978515625,-0.19309139251708984,0.6534633636474609,-0.020508527755737305
1790341541463389400,0.501389404296875,-0.10967445373535156,0.45262861251831055,0.14408016204833984
1790341541479876600,0.517876708984375,0.11294698715209961,0.21791553497314453,0.41326022148132324
1790341541496337400,0.53433740234375,-0.0668025016784668,-0.05037879943847656,0.43840742111206055
1790341541512816000,0.550816162109375,-0.32230615615844727,-0.2891674041748047,0.2817345857620239
1790341541529302500,0.567302490234375,-0.48497581481933594,-0.4209604263305664,0.06563186645507812
1790341541545764000,0.58376416015625,-0.45885133743286133,-0.4396209716796875,-0.1031651496887207
1790341541562283000,0.600282958984375,-0.3209671974182129,-0.49756908416748047,0.026417970657348633
1790341541578743600,0.61674365234375,-0.36132192611694336,-0.4525599479675293,0.11378419399261475
1790341541595207200,0.633207275390625,-0.20636320114135742,-0.41222667694091797,0.18408524990081787
1790341541611725800,0.649725830078125,0.0020585060119628906,-0.4116978645324707,0.32412004470825195
1790341541628186400,0.666186279296875,0.4797811508178711,-0.5972719192504883,0.6073414087295532
1790341541644675800,0.68267578125,0.603208065032959,-0.6927642822265625,0.9059848785400391
1790341541661134000,0.699134033203125,0.47657203674316406,-0.4778914451599121,0.9494320154190063
1790341541677592600,0.715592529296875,0.06342554092407227,-0.05815410614013672,0.7635653018951416
1790341541694087000,0.7320869140625,-0.04816436767578125,0.23359298706054688,0.2633448839187622
1790341541710547700,0.748547607421875,0.1085357666015625,0.4666109085083008,-0.07485759258270264
1790341541727008000,0.765008056640625,0.6201691627502441,0.6244230270385742,0.008319854736328125
1790341541743466800,0.781466796875,0.9152626991271973,0.7226595878601074,0.3368194103240967
1790341541759990300,0.797990234375,0.8778014183044434,0.6457877159118652,0.4827960729598999
1790341541776482600,0.814482666015625,0.0968332290649414,0.6748838424682617,0.7059180736541748
1790341541792943000,0.830943115234375,-0.5112957954406738,0.7055606842041016,0.8290995359420776
1790341541809379800,0.8473798828125,-0.6949858665466309,0.5210599899291992,0.7953442335128784
1790341541825839600,0.863839599609375,-0.5909137725830078,0.14202213287353516,0.6170371174812317
1790341541842298600,0.880298583984375,-0.6249856948852539,-0.15372467041015625,0.46064358949661255
1790341541858811000,0.896810791015625,-0.8343071937561035,-0.15349388122558594,0.15057289600372314
1790341541875266800,0.913266845703125,-1.000227451324463,-0.13536310195922852,-0.11204290390014648
1790341541891755300,0.92975537109375,-1.0393261909484863,-0.10763835906982422,-0.16083061695098877
1790341541908217300,0.94621728515625,-0.6550192832946777,0.17977142333984375,-0.18496298789978027
1790341541924682500,0.9626826171875,-0.22360992431640625,0.41491222381591797,-0.11779415607452393
1790341541941173500,0.979173583984375,0.26051759719848633,0.18117189407348633,0.21138882637023926
1790341541957635300,0.99563525390625,0.1031794548034668,-0.2174973487854004,0.7313268780708313
1790341541974098700,1.0120986328125,-0.6458806991577148,-0.30783748626708984,0.8605071306228638
1790341541990559000,1.02855908203125,-1.2610530853271484,-0.08655548095703125,0.5281558036804199
1790341542007041300,1.045041259765625,-1.3494577407836914,0.19351434707641602,0.04145646095275879
1790341542023531300,1.06153125,-0.9239115715026855,0.35333681106567383,-0.3730654716491699
1790341542039994000,1.077994140625,-0.4018721580505371,0.4238409996032715,-0.5804170370101929
1790341542056480300,1.094480224609375,0.021102428436279297,0.4408535957336426,-0.48019397258758545
1790341542072924000,1.110923828125,0.10810136795043945,0.45934200286865234,-0.44293439388275146
1790341542089391000,1.12739111328125,-0.09319543838500977,0.550508975982666,-0.4664440155029297
1790341542105922600,1.143922607421875,-0.3691134452819824,0.7237844467163086,-0.18603801727294922
1790341542122426400,1.16042626953125,-0.594141960144043,0.8603081703186035,0.1318833827972412
1790341542138876200,1.176876220703125,-0.46892309188842773,0.9886860847473145,0.0022885799407958984
1790341542155383000,1.193383056640625,-0.2950754165649414,0.9396615028381348,-0.30911028385162354
1790341542171842000,1.209842041015625,-0.27814769744873047,0.5062780380249023,-0.4827643632888794
1790341542188301800,1.2263017578125,-0.5511651039123535,0.20630645751953125,-0.49787282943725586
1790341542204759600,1.242759521484375,-0.8417153358459473,0.21697330474853516,-0.4171314239501953
1790341542221217500,1.259217529296875,-1.2924327850341797,0.3787212371826172,-0.22573041915893555
1790341542237734700,1.275734619140625,-1.3076014518737793,0.47138118743896484,-0.10602045059204102
1790341542254234600,1.292234619140625,-0.9205961227416992,0.3035736083984375,-0.16394340991973877
1790341542270690300,1.308690185546875,-0.33298349380493164,0.05395793914794922,-0.2755943536758423
1790341542287147500,1.3251474609375,0.3213620185852051,-0.05164337158203125,-0.34604334831237793
1790341542303626200,1.341626220703125,1.2102313041687012,-0.027482986450195312,-0.33645379543304443
1790341542320079600,1.35807958984375,1.4849510192871094,0.16730403900146484,-0.29085588455200195
1790341542336534300,1.3745341796875,1.1566119194030762,0.3172121047973633,-0.06076323986053467
1790341542353017300,1.391017333984375,0.5006060600280762,0.38132286071777344,0.20601189136505127
1790341542369502200,1.407502197265625,0.007697105407714844,0.43818187713623047,0.14644300937652588
1790341542385981200,1.423981201171875,-0.08554840087890625,0.3957643508911133,0.007028937339782715
1790341542402489600,1.440489501953125,0.032257080078125,0.19333362579345703,-0.0983201265335083
1790341542418945000,1.456945068359375,0.16905546188354492,0.052332401275634766,-0.04244709014892578
1790341542435478800,1.473478759765625,0.0955801010131836,0.09071826934814453,0.15275359153747559
1790341542451933000,1.489932861328125,-0.08385038375854492,0.17848873138427734,0.2784174680709839
1790341542468432400,1.506432373046875,-0.15607357025146484,0.13962173461914062,0.4160465598106384
1790341542484939500,1.522939453125,-0.12772274017333984,0.0637521743774414,0.5161027312278748
1790341542501396500,1.539396484375,-0.03231382369995117,0.07073307037353516,0.5260505676269531
1790341542517882400,1.55588232421875,-0.17590951919555664,0.1060647964477539,0.5347592234611511
1790341542534384600,1.572384521484375,-0.18810129165649414,0.13253116607666016,0.4575759172439575
1790341542550888000,1.588887939453125,0.0651555061340332,0.09614992141723633,0.2667474150657654
1790341542567344000,1.60534423828125,0.5051350593566895,0.0728445053100586,0.10753202438354492
1790341542583831800,1.621831787109375,0.6428709030151367,0.1333785057067871,-0.06454575061798096
1790341542600361700,1.63836181640625,0.5951662063598633,0.16674232482910156,-0.09789741039276123
1790341542616867800,1.654867919921875,0.2405104637145996,0.25695180892944336,-0.16279613971710205
1790341542633354500,1.6713544921875,-0.03472900390625,0.3900012969970703,-0.1755380630493164
1790341542649808100,1.68780810546875,-0.0903940200805664,0.3562912940979004,-0.07119143009185791
1790341542666305500,1.704305419921875,-0.15150117874145508,0.2808709144592285,-0.09428369998931885
1790341542682761200,1.72076123046875,-0.1894207000732422,0.22178268432617188,-0.1842747926712036
1790341542699212300,1.73721240234375,-0.10761165618896484,0.06351470947265625,-0.18170499801635742
1790341542715667200,1.753667236328125,-0.17072248458862305,-0.06516122817993164,-0.26730918884277344
1790341542732123100,1.770123046875,-0.34734535217285156,-0.16717243194580078,-0.2784888744354248
1790341542748580400,1.786580322265625,-0.5696454048156738,-0.21570682525634766,-0.30561280250549316
1790341542764977400,1.802977294921875,-0.5448479652404785,-0.119415283203125,-0.4374403953552246
1790341542781461200,1.819461181640625,-0.4035181999206543,0.007016181945800781,-0.5004221200942993
1790341542798008000,1.836008056640625,-0.13759565353393555,0.04125022888183594,-0.38688087463378906
1790341542814494000,1.852493896484375,0.07273244857788086,0.1323690414428711,-0.16933321952819824
1790341542830952700,1.86895263671875,0.07718944549560547,0.11524772644042969,0.006666779518127441
1790341542847467300,1.88546728515625,-0.07940244674682617,0.04435443878173828,0.12062215805053711
1790341542863924000,1.901924072265625,-0.21921014785766602,-0.05140495300292969,0.09721148014068604
1790341542880414000,1.9184140625,-0.4454021453857422,-0.07562971115112305,0.059013962745666504
1790341542896872400,1.93487255859375,-0.5415492057800293,-0.0831913948059082,0.14241647720336914
1790341542913331700,1.951331787109375,-0.4921579360961914,-0.057299137115478516,0.21995973587036133
1790341542929819600,1.967819580078125,-0.49813175201416016,-0.12954235076904297,0.3261669874191284
1790341542946276600,1.984276611328125,-0.11111021041870117,-0.3759336471557617,0.5097771286964417
1790341542962766300,2.000766357421875,0.07402229309082031,-0.621150016784668,0.6249342560768127
1790341542979220200,2.01722021484375,-0.10747861862182617,-0.9391236305236816,0.23161691427230835
1790341542995699700,2.03369970703125,-0.20781326293945312,-1.183762550354004,-0.050884366035461426
1790341543012155600,2.05015576171875,-0.17053842544555664,-1.3255443572998047,-0.36482179164886475
1790341543028612600,2.066612548828125,-0.08284235000610352,-1.1383605003356934,-0.6820446252822876
1790341543044967000,2.082966796875,0.28191709518432617,-0.8024773597717285,-0.6490217447280884
1790341543061380900,2.099380859375,0.9995546340942383,-0.5892291069030762,-0.1933475136756897
1790341543077839000,2.115839111328125,1.3874773979187012,-0.312255859375,0.3181764483451843
1790341543094326800,2.132326904296875,0.8068652153015137,-0.14961671829223633,0.7180882692337036
1790341543110760200,2.14876025390625,-0.15617704391479492,-0.16841506958007812,0.8791989684104919
1790341543127049700,2.1650498046875,-0.8093514442443848,-0.1031947135925293,0.890526294708252
1790341543143505700,2.181505615234375,-0.8984079360961914,0.2110600471496582,0.942757248878479
1790341543159962600,2.197962646484375,-1.2604913711547852,0.5610408782958984,0.8043687343597412
1790341543176446500,2.214446533203125,-1.5403399467468262,0.8195924758911133,0.5944555997848511
1790341543192901600,2.230901611328125,-1.1590914726257324,0.8735475540161133,0.5212528109550476
1790341543209360400,2.2473603515625,0.058971405029296875,0.6042852401733398,0.4613950252532959
1790341543225815600,2.263815673828125,1.0992588996887207,0.0651392936706543,0.517066478729248
1790341543242297600,2.280297607421875,1.5291047096252441,-0.7935152053833008,0.5275025367736816
1790341543258754600,2.296754638671875,1.0672621726989746,-1.5740752220153809,0.2748905420303345
1790341543275208200,2.313208251953125,0.3369007110595703,-1.8907313346862793,-0.18436694145202637
1790341543291606300,2.329606201171875,-0.05277729034423828,-1.8169426918029785,-0.7675036787986755
1790341543308059400,2.346059326171875,0.8646540641784668,-1.5577983856201172,-0.9312947392463684
1790341543324514800,2.362514892578125,1.9519481658935547,-1.398789882659912,-0.3505874276161194
1790341543340997400,2.378997314453125,1.2416701316833496,-1.665743350982666,0.2343570590019226
1790341543357451500,2.395451416015625,-0.6253342628479004,-1.9921255111694336,0.38334742188453674
1790341543373909000,2.411908935546875,-2.1322059631347656,-2.2105836868286133,0.3319643437862396
1790341543390366000,2.428365966796875,-2.775128126144409,-1.763831615447998,0.07271790504455566
1790341543406823700,2.44482373046875,-2.221550941467285,-1.168471336364746,-0.020854860544204712
1790341543423312000,2.461311767578125,-0.9978747367858887,-1.1086702346801758,0.03239390254020691
1790341543439766800,2.477766845703125,0.5336518287658691,-1.3626198768615723,-0.1340487003326416
1790341543456190000,2.49418994140625,1.628178596496582,-1.4736957550048828,-0.32019129395484924
1790341543472610800,2.51061083984375,2.261570453643799,-1.4564323425292969,-0.5355045795440674
1790341543489087500,2.52708740234375,2.596210479736328,-1.396855354309082,-0.9904335737228394
1790341543505621500,2.54362158203125,3.1220474243164062,-1.4572830200195312,-1.3527116775512695
1790341543522072800,2.56007275390625,3.3734660148620605,-1.6248445510864258,-1.7539777755737305
1790341543538577000,2.576576904296875,3.094360828399658,-1.7687797546386719,-1.8918355703353882
1790341543555031000,2.593031005859375,2.2867703437805176,-1.7459259033203125,-1.8527069091796875
1790341543571488500,2.609488525390625,1.5220990180969238,-1.6217222213745117,-1.5387170314788818
1790341543587971000,2.62597119140625,1.5523147583007812,-1.610189437866211,-1.177372932434082
1790341543604429000,2.642428955078125,1.64239501953125,-1.4761066436767578,-1.3675193786621094
1790341543620888800,2.658888916015625,3.142747402191162,0.5857820510864258,2.0273385047912598
1790341543637346800,2.675346923828125,4.094340801239014,2.0994644165039062,5.437920570373535
1790341543653806800,2.691806884765625,1.699129581451416,1.2444143295288086,2.9169251918792725
1790341543670265600,2.708265625,1.634995460510254,1.426218032836914,2.4828319549560547
1790341543686723800,2.724723876953125,-0.4744133949279785,-0.02449798583984375,-0.5533181428909302
1790341543703212300,2.74121240234375,-1.8347086906433105,-0.9178094863891602,-2.8811914920806885
1790341543719664600,2.75766455078125,-2.180391311645508,-1.4121980667114258,-3.8788905143737793
1790341543736050200,2.77405029296875,-1.879530906677246,-2.172090530395508,-3.311875581741333
1790341543752501800,2.790501708984375,-1.372696876525879,-2.344964027404785,-1.918953537940979
1790341543768953300,2.806953369140625,-1.2730498313903809,-2.2756028175354004,-1.1318132877349854
1790341543785365800,2.82336572265625,-0.7196006774902344,-1.6134986877441406,-0.35678473114967346
1790341543801818600,2.839818603515625,-0.7463769912719727,-0.7961196899414062,0.4447762966156006
1790341543818272000,2.85627197265625,-0.5729374885559082,-0.5114531517028809,1.2841638326644897
1790341543834784300,2.8727841796875,-1.5679349899291992,-0.8851165771484375,2.067579984664917
1790341543851238400,2.88923828125,-2.1162290573120117,-1.3949623107910156,2.8391079902648926
1790341543867698700,2.90569873046875,-0.7714734077453613,-1.6931872367858887,2.5827836990356445
1790341543884155600,2.92215576171875,0.04786825180053711,-1.3012728691101074,1.2943236827850342
1790341543900614000,2.93861376953125,0.44286298751831055,-1.1136279106140137,0.7624791860580444
1790341543917069300,2.9550693359375,0.515160083770752,-0.8307309150695801,1.2619316577911377
1790341543933525200,2.971525146484375,1.2227888107299805,-0.9182834625244141,1.0528736114501953
1790341543949980000,2.98797998046875,1.374488353729248,-1.3596763610839844,0.8429052829742432
1790341543966430000,3.004429931640625,1.281754970550537,-1.5084772109985352,0.2653626799583435
1790341543982908700,3.02090869140625,0.9124541282653809,-1.2423248291015625,-0.2706257700920105
1790341543999362300,3.0373623046875,0.6042742729187012,-0.8944377899169922,-0.5277250409126282
1790341544015812400,3.053812255859375,0.36087560653686523,-0.5071754455566406,-0.011956572532653809
1790341544032318500,3.070318359375,0.27013301849365234,-0.2111649513244629,0.593542218208313
1790341544048770000,3.08677001953125,0.3198118209838867,-0.044403076171875,0.8022642135620117
1790341544065186600,3.1031865234375,0.5793008804321289,0.10887718200683594,0.3080058991909027
1790341544081698800,3.11969873046875,0.7524309158325195,0.2288990020751953,-0.6655451059341431
1790341544098150700,3.136150634765625,0.6433663368225098,0.22420215606689453,-1.5162253379821777
1790341544114603000,3.15260302734375,0.6989908218383789,0.08813667297363281,-2.240022659301758
1790341544131053800,3.1690537109375,0.6310701370239258,0.23485231399536133,-1.2484402656555176
1790341544147435500,3.185435546875,0.9794683456420898,0.42704200744628906,0.051761090755462646
1790341544163920400,3.20192041015625,1.0794339179992676,0.40914106369018555,1.1153515577316284
1790341544180369400,3.218369384765625,1.0562057495117188,-0.48016786575317383,1.017120122909546
1790341544196852500,3.2348525390625,0.1545701026916504,-0.7707419395446777,1.081080436706543
1790341544213298700,3.251298583984375,-1.1589031219482422,-0.670203685760498,1.2259927988052368
1790341544229773800,3.26777392578125,-2.2255940437316895,-0.6459641456604004,1.1147282123565674
1790341544246256600,3.284256591796875,-2.795743465423584,-0.48181581497192383,1.1735615730285645
1790341544262709500,3.30070947265625,-2.9167237281799316,-0.3308095932006836,1.0580275058746338
1790341544279087400,3.31708740234375,-2.779142379760742,-0.5906553268432617,0.6524224281311035
1790341544295538000,3.333537841796875,-2.583698272705078,-0.8459019660949707,0.4243210554122925
1790341544311988000,3.349988037109375,-1.6826157569885254,-0.8149595260620117,0.36557817459106445
1790341544328501800,3.366501708984375,-1.7305941581726074,-0.7729330062866211,0.05089461803436279
1790341544344955100,3.382955078125,-0.38353538513183594,-0.7801094055175781,-0.1746007204055786
1790341544361443800,3.39944384765625,-0.5606050491333008,-0.9316725730895996,-0.7808079719543457
1790341544377899500,3.4158994140625,-0.29166603088378906,-1.224604606628418,-1.4380204677581787
1790341544394358800,3.43235888671875,0.23330307006835938,-1.1106748580932617,-1.3044171333312988
1790341544410845000,3.448844970703125,1.0673084259033203,-1.0386638641357422,-0.7373743653297424
1790341544427296300,3.465296142578125,1.2064971923828125,-0.7446086406707764,0.10992616415023804
1790341544443750000,3.48175,0.9941329956054688,-0.20511174201965332,0.49384617805480957
1790341544460201500,3.498201416015625,1.2106122970581055,0.0029778480529785156,0.2669065594673157
1790341544476653000,3.514653076171875,1.165095329284668,0.021348953247070312,0.03533828258514404
1790341544493106200,3.531106201171875,0.8133478164672852,0.08276998996734619,0.08677232265472412
1790341544509606400,3.5476064453125,0.7956924438476562,-0.04203188419342041,0.08304768800735474
1790341544526121500,3.56412158203125,1.1911773681640625,-0.08406436443328857,0.10254043340682983
1790341544542572800,3.58057275390625,1.6590986251831055,0.17865920066833496,0.38919687271118164
1790341544559024000,3.597024169921875,1.9653806686401367,0.31977224349975586,0.3840501308441162
1790341544575537400,3.613537353515625,2.020660400390625,-0.027285873889923096,-0.05223071575164795
1790341544591989200,3.6299892578125,1.5840644836425781,-0.14702671766281128,-0.2540973424911499
1790341544608474000,3.64647412109375,1.4078998565673828,-0.14188137650489807,-0.3240326941013336
1790341544624925700,3.66292578125,1.0098228454589844,-0.27591946721076965,-0.34964534640312195
1790341544641378300,3.67937841796875,0.671788215637207,-0.5643960237503052,-0.318256139755249
1790341544657827600,3.69582763671875,0.3456287384033203,-0.6587658524513245,-0.033537983894348145
1790341544674276600,3.712276611328125,0.1709136962890625,-0.6680977940559387,0.24855205416679382
1790341544690760000,3.728760009765625,0.18695354461669922,-0.7254164814949036,0.4696749746799469
1790341544707212500,3.745212646484375,0.19270706176757812,-0.6044785976409912,0.7292205095291138
1790341544723689000,3.76168896484375,-0.017698287963867188,-0.42172902822494507,1.2784478664398193
1790341544740139500,3.778139404296875,-0.1422586441040039,-0.17654642462730408,1.6127955913543701
1790341544756590000,3.794590087890625,-0.09568405151367188,0.07088807225227356,1.5027447938919067
1790341544772980700,3.810980712890625,-0.35494327545166016,0.06612178683280945,0.9086937308311462
1790341544789429500,3.827429443359375,-0.270599365234375,-0.21844834089279175,0.1528605967760086
1790341544805881900,3.8438818359375,-0.015400886535644531,-0.4030042886734009,-0.31237637996673584
1790341544822370300,3.860370361328125,0.2328653335571289,-0.478829562664032,-0.14717547595500946
1790341544838786800,3.876786865234375,-7.246801853179932,4.530141353607178,3.45530104637146
1790341544855240200,3.893240234375,7.360848426818848,-3.5498766899108887,1.689500331878662
1790341544871693800,3.90969384765625,0.3354310989379883,0.38476622104644775,0.4954293966293335
1790341544888146700,3.926146728515625,-0.6236753463745117,-0.7031659483909607,0.07243499159812927
1790341544904597000,3.942596923828125,-0.8282594680786133,0.26287245750427246,-0.11735981702804565
1790341544921046000,3.9590458984375,0.061858177185058594,0.03557676076889038,0.2039746344089508
1790341544937530600,3.975530517578125,-0.3865995407104492,-0.651550829410553,0.16747689247131348
1790341544953981400,3.9919814453125,-0.2606973648071289,0.09795790910720825,0.5059075355529785
1790341544970455300,4.008455322265625,-0.9733619689941406,0.3950651288032532,1.3581609725952148
1790341544986938600,4.024938720703125,-0.35958290100097656,-0.218161940574646,0.2133551836013794
1790341545003389000,4.041388916015625,-0.35040950775146484,-0.01761329174041748,0.25529778003692627
1790341545019902700,4.05790283203125,-0.3335895538330078,0.3156266212463379,0.013762831687927246
1790341545036349700,4.074349609375,0.5814085006713867,-0.08513498306274414,-1.2643483877182007
1790341545052798500,4.090798583984375,0.2853269577026367,0.3294633626937866,-0.19570595026016235
1790341545069274600,4.107274658203125,1.0261096954345703,-0.06496226787567139,0.019824564456939697
1790341545085723100,4.12372314453125,0.5512418746948242,-0.048712849617004395,-0.28838402032852173
1790341545102205200,4.140205078125,2.4065752029418945,1.6015537977218628,0.7799850702285767
1790341545118724900,4.156724853515625,3.513596534729004,0.3053548336029053,-0.10295778512954712
1790341545135097300,4.173097412109375,2.319944381713867,0.9796726703643799,0.15012553334236145
1790341545151543800,4.189543701171875,0.9996166229248047,0.36675333976745605,0.5150637030601501
1790341545168044000,4.2060439453125,0.6467685699462891,0.3393876552581787,0.6478281617164612
1790341545184497000,4.222496826171875,-1.136427879333496,2.3814778327941895,1.5177539587020874
1790341545200948200,4.2389482421875,1.5587339401245117,-0.21579933166503906,-0.9193984270095825
1790341545217422300,4.25542236328125,3.019791603088379,1.8793408870697021,0.42396336793899536
1790341545233905200,4.2719052734375,1.9992237091064453,4.337786674499512,0.6655454039573669
1790341545250353700,4.288353759765625,3.4328107833862305,-0.16599690914154053,0.6368693113327026
1790341545266765800,4.304765869140625,1.205270767211914,0.5288313627243042,0.13959673047065735
1790341545283214600,4.321214599609375,0.5577077865600586,0.3681260347366333,-0.6438268423080444
1790341545299663000,4.3376630859375,0.02240276336669922,-0.7023493051528931,0.1144413948059082
1790341545316141300,4.354141357421875,-0.3133401870727539,0.355562686920166,0.32198435068130493
1790341545332591600,4.370591552734375,-0.8883428573608398,-0.14696431159973145,-0.1619739532470703
1790341545349043700,4.387043701171875,-1.6842970848083496,-1.1871216297149658,-0.2410597801208496
1790341545365496600,4.40349658203125,-0.7255706787109375,1.0647997856140137,-0.026601076126098633
1790341545381948700,4.41994873046875,-0.6261281967163086,-0.49041569232940674,-0.3831857442855835
1790341545398434300,4.436434326171875,-0.32532691955566406,0.18874001502990723,0.07326602935791016
1790341545414887000,4.452886962890625,-0.5501232147216797,-0.5529829263687134,-0.2608379125595093
1790341545431367200,4.4693671875,1.3502368927001953,-0.10266947746276855,0.9042613506317139
1790341545447820000,4.485820068359375,1.8570365905761719,0.17809903621673584,1.0638148784637451
1790341545464302000,4.502302001953125,2.433462142944336,0.40762364864349365,-0.10587000846862793
1790341545480756000,4.518755859375,2.2519826889038086,0.3886758089065552,-0.9912716746330261
1790341545497207300,4.535207275390625,0.8485822677612305,-0.307857871055603,-1.2957113981246948
1790341545513627100,4.551627197265625,-0.19953536987304688,0.020414113998413086,-0.5524667501449585
1790341545530078200,4.568078125,-0.7997360229492188,0.19559669494628906,-0.37027066946029663
1790341545546531800,4.58453173828125,-0.9616575241088867,0.2805140018463135,-0.33305788040161133
1790341545563013000,4.60101318359375,-1.4093618392944336,0.5404496192932129,-0.3718024492263794
1790341545579462000,4.6174619140625,-1.6025056838989258,0.6602411270141602,-0.4659436345100403
1790341545595944000,4.63394384765625,-1.4956412315368652,0.8450260162353516,-0.10143810510635376
1790341545612394500,4.65039453125,-1.528834342956543,0.9684195518493652,-0.3006777763366699
1790341545628859000,4.66685888671875,-1.9353361129760742,0.981194019317627,-0.867927610874176
1790341545645308400,4.683308349609375,-2.1643543243408203,0.6335673332214355,-1.7064359188079834
1790341545661758000,4.699758056640625,-2.8929080963134766,0.42444705963134766,-1.6542285680770874
1790341545678207000,4.71620703125,19.801420211791992,-8.780471801757812,10.50283145904541
1790341545694657300,4.7326572265625,-6.700074195861816,4.361451148986816,-1.1339595317840576
1790341545711109400,4.749109375,6.177992820739746,-1.6704306602478027,2.2966573238372803
1790341545727561200,4.765561279296875,-2.487456798553467,1.797872543334961,0.39810121059417725
1790341545744012000,4.782011962890625,1.854776382446289,-0.5937316417694092,0.6460317373275757
1790341545760483800,4.79848388671875,-0.9033641815185547,1.1535909175872803,0.06779420375823975
1790341545776932400,4.814932373046875,-0.6465129852294922,0.983130693435669,0.08671200275421143
1790341545793379800,4.8313798828125,0.7588825225830078,0.30565524101257324,0.27837514877319336
1790341545809852200,4.84785205078125,-0.6122884750366211,0.27785253524780273,-0.2261219024658203
1790341545826327800,4.864327880859375,-0.18390750885009766,-0.2042539119720459,-0.006894588470458984
1790341545842773200,4.880773193359375,-1.8592629432678223,0.4684927463531494,0.6512216925621033
1790341545859263200,4.89726318359375,-0.8897237777709961,-0.6698040962219238,0.2716907262802124
1790341545875708700,4.913708740234375,0.2956209182739258,-1.3464542627334595,-0.07112467288970947
1790341545892156400,4.930156494140625,-0.8547029495239258,-0.7625610828399658,-0.22897040843963623
1790341545908601000,4.94660107421875,0.17029190063476562,-0.2331218719482422,-0.20800518989562988
1790341545925048000,4.963048095703125,0.5338802337646484,0.413043737411499,0.41948986053466797
1790341545941493200,4.9794931640625,-0.5180683135986328,0.8015635013580322,0.4150564670562744
1790341545957934600,4.9959345703125,1.4408817291259766,0.7682657241821289,0.3448193073272705
1790341545974377000,5.012376953125,0.7308082580566406,1.009049415588379,1.3691701889038086
1790341545990824200,5.02882421875,0.06779861450195312,1.0883171558380127,1.5758488178253174
1790341546007269600,5.04526953125,-1.0330610275268555,1.1951847076416016,1.9272953271865845
1790341546023718000,5.0617177734375,-0.42295169830322266,0.9990472793579102,1.6577647924423218
1790341546040164000,5.0781640625,2.8538551330566406,-0.04233193397521973,0.0494004487991333
1790341546056636200,5.09463623046875,-2.230748176574707,-0.1572721004486084,0.3641209602355957
1790341546073012500,5.111012451171875,-4.0956010818481445,-0.6672183275222778,-0.3354037404060364
1790341546089329200,5.1273291015625,1.2547664642333984,-1.3017454147338867,-1.8172945976257324
1790341546105775600,5.143775634765625,0.10518932342529297,-1.0237910747528076,-1.2782635688781738
1790341546122223900,5.160223876953125,0.5799999237060547,-1.610636591911316,-1.1163971424102783
1790341546138674000,5.176673828125,0.2062063217163086,-1.321068286895752,-0.8845745325088501
1790341546155123700,5.193123779296875,-0.2892189025878906,-1.425811767578125,-0.9319923520088196
1790341546171575000,5.209574951171875,1.8978872299194336,-1.6681877374649048,-0.25093385577201843
1790341546187995400,5.225995361328125,0.8699426651000977,-1.4995992183685303,-0.4321656823158264
1790341546204439800,5.242439697265625,1.5721549987792969,-0.8614541292190552,0.49872106313705444
1790341546220888000,5.25888818359375,1.0360212326049805,-0.4042617678642273,-0.5810812711715698
1790341546237335000,5.2753349609375,0.8754377365112305,0.16822123527526855,-0.22047212719917297
1790341546253810000,5.291809814453125,0.6543378829956055,-0.2408754825592041,0.02424144744873047
1790341546270256400,5.30825634765625,0.5291252136230469,0.24127835035324097,-0.6394051313400269
1790341546286700500,5.324700439453125,-0.09193134307861328,0.6453800201416016,0.1633542776107788
1790341546303169800,5.341169677734375,0.3558769226074219,0.48460692167282104,0.6154979467391968
1790341546319613700,5.35761376953125,0.024727821350097656,0.5442186594009399,-0.24096930027008057
1790341546336084500,5.37408447265625,-0.5318498611450195,0.7436938881874084,0.11632716655731201
1790341546352581400,5.390581298828125,-1.2754955291748047,0.8562286496162415,0.1911628246307373
1790341546369028000,5.407028076171875,0.13544559478759766,0.46232157945632935,-0.26465871930122375
1790341546385473300,5.423473388671875,-0.8422937393188477,0.6776609420776367,0.11800545454025269
1790341546401967000,5.439967041015625,-0.44421863555908203,0.6331421136856079,0.20968645811080933
1790341546418427400,5.456427490234375,-0.4136343002319336,1.4739725589752197,0.5271301865577698
1790341546434874000,5.4728740234375,-0.20189476013183594,1.2517913579940796,0.14843177795410156
1790341546451320300,5.4893203125,-0.18375110626220703,0.07496309280395508,-0.5306606888771057
1790341546467809000,5.50580908203125,0.04626750946044922,-0.6806248426437378,-0.9742182493209839
1790341546484255700,5.522255859375,0.21089458465576172,-1.3451616764068604,-0.6525472402572632
1790341546500626000,5.5386259765625,0.5103178024291992,-1.682529330253601,0.01771944761276245
1790341546517072400,5.555072265625,0.2693157196044922,-1.58847177028656,0.2091168463230133
1790341546533560300,5.571560302734375,-0.6125478744506836,-0.8152236342430115,0.6127772331237793
1790341546550036000,5.588035888671875,-0.095123291015625,-0.06396234035491943,0.07826000452041626
1790341546566483700,5.604483642578125,-0.2101125717163086,-0.02811431884765625,-0.5233820080757141
1790341546582934000,5.62093408203125,0.6176395416259766,-0.6872144937515259,-0.693309485912323
1790341546599382800,5.6373828125,0.5202569961547852,-0.5017068386077881,-0.21273702383041382
1790341546615829200,5.653829345703125,0.4386148452758789,-0.288590669631958,-0.274554967880249
1790341546632277000,5.670277099609375,0.2450551986694336,-0.04575991630554199,0.13228937983512878
1790341546648725000,5.68672509765625,-0.2654895782470703,0.0018093585968017578,0.751507043838501
1790341546665172000,5.703171875,-0.22991943359375,-0.28403568267822266,0.4742095172405243
1790341546681615000,5.719614990234375,-0.6478738784790039,0.1703089475631714,0.48031124472618103
1790341546698085000,5.736085205078125,-0.47484779357910156,0.5702553987503052,0.6811257600784302
1790341546714529000,5.752529052734375,-0.9290561676025391,0.5273226499557495,0.8949823379516602
1790341546730971000,5.768970947265625,-1.089625358581543,0.27997827529907227,0.8184910416603088
1790341546747383800,5.7853837890625,-0.9730186462402344,0.12791919708251953,0.5483062267303467
1790341546763827000,5.801826904296875,1.0277347564697266,-0.6924461126327515,0.5178323984146118
1790341546780272000,5.818272216796875,0.5681438446044922,-0.7911715507507324,0.30070897936820984
1790341546796777000,5.83477685546875,-0.26716041564941406,-0.9039143323898315,-0.288277268409729
1790341546813224000,5.851223876953125,0.5455446243286133,-1.2156144380569458,-0.32443034648895264
1790341546829703200,5.867703125,0.5938596725463867,-1.196016550064087,-0.16878478229045868
1790341546846152700,5.884152587890625,0.4524707794189453,-1.7101092338562012,-0.8555757999420166
1790341546862532600,5.90053271484375,0.050243377685546875,-2.023876190185547,-0.768949031829834
1790341546879010300,5.91701025390625,0.4208078384399414,-1.7720729112625122,-1.1084474325180054
1790341546895454000,5.933453857421875,0.7351217269897461,-1.740598440170288,-1.5961015224456787
1790341546911899000,5.94989892578125,0.28089141845703125,-1.6355918645858765,-1.0224782228469849
1790341546928343300,5.96634326171875,1.0911846160888672,-0.6213778257369995,-0.9168696999549866
1790341546944811500,5.9828115234375,0.7547006607055664,-1.0741565227508545,-0.07607239484786987
1790341546961255400,5.99925537109375,0.8594036102294922,-0.48953866958618164,0.6456307768821716
1790341546977700400,6.015700439453125,-1.5418825149536133,0.4683074951171875,-0.17471764981746674
1790341546994064600,6.032064697265625,0.23316097259521484,-0.9096987247467041,0.2458471655845642
1790341547010505200,6.048505126953125,-1.229466438293457,-0.06009984016418457,0.9500737190246582
1790341547026949400,6.064949462890625,-0.18534183502197266,0.9130210876464844,-0.08289644122123718
1790341547043453000,6.081452880859375,-0.41332244873046875,0.05334281921386719,1.338427186012268
1790341547059879700,6.097879638671875,-0.08673667907714844,0.12002348899841309,0.23715078830718994
1790341547076359200,6.114359130859375,0.3772592544555664,0.08289337158203125,-0.040779173374176025
1790341547092806100,6.13080615234375,0.5041294097900391,-0.6375212669372559,-0.09903901815414429
1790341547109254000,6.14725390625,0.2029266357421875,-0.8849732875823975,-0.2976812422275543
1790341547125735400,6.1637353515625,1.066873550415039,-0.42598795890808105,0.13936680555343628
1790341547142181400,6.180181396484375,0.38844966888427734,0.24296021461486816,-0.44682130217552185
1790341547158630100,6.196630126953125,-0.47144031524658203,-0.10115385055541992,-0.6578539609909058
1790341547175078000,6.213077880859375,-0.8337430953979492,0.6693332195281982,-0.016952723264694214
1790341547191549700,6.2295498046875,-0.851837158203125,-0.38650035858154297,-0.06309738755226135
1790341547207959800,6.245959716796875,-0.24094867706298828,1.0219714641571045,-0.24453315138816833
1790341547224438500,6.2624384765625,-0.3456144332885742,-0.10160040855407715,0.021377146244049072
1790341547240932400,6.278932373046875,0.21475696563720703,0.4488346576690674,0.3546109199523926
1790341547257377800,6.295377685546875,-0.04229450225830078,-0.35448503494262695,-0.0003781914710998535
1790341547273850600,6.3118505859375,1.259674072265625,0.14198708534240723,0.47068536281585693
1790341547290326800,6.328326904296875,-0.07499027252197266,0.010381937026977539,-0.047620296478271484
1790341547306773800,6.344773681640625,-0.08014583587646484,-0.18881464004516602,-0.008105099201202393
1790341547323222300,6.36122216796875,0.7384462356567383,-0.37961411476135254,-0.6689075231552124
1790341547339669500,6.37766943359375,0.5861988067626953,-0.44220685958862305,-0.9724314212799072
1790341547356117500,6.394117431640625,0.1573963165283203,-0.201934814453125,-0.4350453019142151
1790341547372564200,6.410564208984375,0.17624759674072266,-0.262770414352417,0.03112548589706421
1790341547389011700,6.42701171875,0.1409778594970703,0.05866885185241699,0.16096502542495728
1790341547405458400,6.44345849609375,0.08001518249511719,-0.33898472785949707,0.24013003706932068
1790341547421904100,6.459904052734375,0.44909095764160156,-0.11690688133239746,0.4179454445838928
1790341547438348300,6.476348388671875,0.03402137756347656,-0.2651712894439697,-0.11068621277809143
1790341547454793200,6.492793212890625,0.8176374435424805,-0.7160317897796631,-0.41677889227867126
1790341547471238400,6.50923828125,0.5464611053466797,-0.5132734775543213,-0.8950729370117188
1790341547487714300,6.52571435546875,0.4729433059692383,0.6762981414794922,-0.05926012992858887
1790341547504161800,6.542161865234375,-0.07671546936035156,-0.6986591815948486,-0.6019551157951355
1790341547520690700,6.558690673828125,0.9122905731201172,-0.01906418800354004,-0.3840666711330414
1790341547537038600,6.57503857421875,-0.041767120361328125,0.3150184154510498,-0.07381868362426758
1790341547553517800,6.591517822265625,-0.10078048706054688,-1.0562655925750732,-0.4131333529949188
1790341547569962200,6.607962158203125,0.8010902404785156,0.18443989753723145,1.524088740348816
1790341547586407000,6.624406982421875,0.1734447479248047,0.572908878326416,0.26921460032463074
1790341547602848800,6.640848876953125,0.26554107666015625,-0.1484203338623047,-0.8391218185424805
1790341547619294500,6.65729443359375,-0.3552703857421875,-0.15264511108398438,0.46169835329055786
1790341547635686700,6.673686767578125,-0.20888328552246094,-0.24602985382080078,0.6878855228424072
1790341547652181000,6.690180908203125,-0.06933879852294922,0.09906411170959473,-0.7306994199752808
1790341547668630500,6.706630615234375,-0.16232872009277344,-0.5288276672363281,0.3655097484588623
1790341547685102600,6.7231025390625,0.6723041534423828,0.3484227657318115,-0.08685162663459778
1790341547701544200,6.739544189453125,-0.5347089767456055,-0.22334742546081543,-0.8808515667915344
1790341547717986000,6.755986083984375,-0.3071441650390625,0.05821704864501953,0.8010802268981934
1790341547734431200,6.77243115234375,0.13461589813232422,-0.62912917137146,-0.016429901123046875
1790341547750873300,6.788873291015625,-0.18459320068359375,0.48491883277893066,-0.24128171801567078
1790341547767319300,6.8053193359375,0.5398435592651367,-0.398634672164917,0.10813027620315552
1790341547783793700,6.821793701171875,0.1377401351928711,0.2715146541595459,0.4276910126209259
1790341547800237600,6.838237548828125,-0.26851844787597656,0.044075727462768555,0.39408716559410095
1790341547816679200,6.85467919921875,0.7531442642211914,-0.562504768371582,-0.29467445611953735
1790341547833121000,6.87112109375,0.1598796844482422,-0.31760668754577637,0.34054845571517944
1790341547849564400,6.887564453125,-0.3568840026855469,-0.2756843566894531,-0.01667526364326477
1790341547866009300,6.90400927734375,1.0614233016967773,-0.9767366647720337,1.2668763399124146
1790341547882488300,6.92048828125,-0.4329662322998047,1.271662950515747,0.07165214419364929
1790341547898933800,6.936933837890625,0.6677093505859375,-0.34008073806762695,0.2502797842025757
1790341547915373800,6.953373779296875,-0.5612421035766602,-0.24646830558776855,0.8204231262207031
1790341547931816400,6.96981640625,-0.6177949905395508,0.735769510269165,0.15986505150794983
1790341547948256500,6.986256591796875,-0.5028629302978516,-1.8006598949432373,-0.8129853010177612
1790341547964695600,7.002695556640625,1.1061897277832031,-0.35949087142944336,-0.4269401431083679
1790341547981162200,7.019162353515625,0.1536121368408203,0.46792125701904297,-0.785681962966919
1790341547997604400,7.035604248046875,0.48718833923339844,-0.32118701934814453,-1.458808183670044
1790341548014048500,7.052048583984375,-1.5411834716796875,-0.36826539039611816,-0.8675195574760437
1790341548030522000,7.068522216796875,1.017716407775879,-2.0977671146392822,-1.0662968158721924
1790341548046967000,7.084967041015625,1.0764799118041992,0.6865537166595459,-0.49559223651885986
1790341548062449400,7.100449462890625,2.5038976669311523,-1.5308115482330322,-1.150130271911621
1790341548078891300,7.116891357421875,-0.7111301422119141,1.8549911975860596,0.6441588401794434
1790341548095337200,7.133337158203125,-2.3372063636779785,-0.07737183570861816,-0.4742761254310608
1790341548111784200,7.1497841796875,-1.7955589294433594,0.35235095024108887,1.7212268114089966
1790341548127219200,7.16521923828125,-1.1121826171875,1.5626716613769531,-0.06124985218048096
1790341548143720200,7.18172021484375,-2.347266674041748,-0.40170371532440186,-2.416111946105957
1790341548160165400,7.198165283203125,2.1534252166748047,1.972702980041504,2.710191011428833
1790341548176608500,7.2146083984375,-1.4270763397216797,-2.239074945449829,-0.45133697986602783
1790341548193054200,7.23105419921875,-0.991185188293457,-1.5763416290283203,-1.8190994262695312
1790341548209538000,7.2475380859375,-3.824552059173584,-1.2380545139312744,-1.2007901668548584
1790341548226002700,7.264002685546875,3.0074081420898438,0.630868673324585,1.1851990222930908
1790341548242452200,7.2804521484375,1.7633705139160156,1.066251516342163,-1.5132110118865967
1790341548258901500,7.296901611328125,-0.9679956436157227,0.892391562461853,-0.07309791445732117
1790341548275379200,7.313379150390625,-2.9868507385253906,1.3893955945968628,1.2394013404846191
1790341548291827700,7.32982763671875,-2.498619556427002,-2.4205353260040283,-0.4843009412288666
1790341548308277000,7.346277099609375,2.7242040634155273,-1.0487031936645508,0.03919816017150879
1790341548324723700,7.3627236328125,0.9056358337402344,-0.08219516277313232,0.7231572866439819
1790341548341167400,7.37916748046875,4.811690330505371,0.6047073602676392,1.605051040649414
1790341548357611000,7.395611083984375,-2.481363296508789,-0.5243542194366455,-0.23853768408298492
1790341548374058000,7.41205810546875,-2.379093647003174,-1.258461833000183,-1.5177552700042725
1790341548390506200,7.42850634765625,-2.264265537261963,-0.739529550075531,0.3131595849990845
1790341548406951700,7.44495166015625,-2.5474720001220703,-1.1109999418258667,0.42298635840415955
1790341548423398400,7.4613984375,3.633363723754883,0.1386195421218872,-1.3181378841400146
1790341548439846700,7.4778466796875,0.3759632110595703,-0.08979293704032898,-1.1086064577102661
1790341548456297500,7.49429736328125,-0.4544248580932617,0.3831118643283844,0.012875527143478394
1790341548472764700,7.5107646484375,1.3802099227905273,1.9020905494689941,1.1548594236373901
1790341548489213700,7.527213623046875,1.0503253936767578,2.282238721847534,2.492826223373413
1790341548505661700,7.54366162109375,0.4776172637939453,0.139702707529068,1.2854089736938477
1790341548522135000,7.560135009765625,-1.9327378273010254,-0.2487732470035553,-0.6000568866729736
1790341548538518300,7.576518310546875,-0.07268619537353516,-0.0657181441783905,0.22735151648521423
1790341548554963700,7.592963623046875,-0.36651611328125,1.33824622631073,1.0566117763519287
1790341548571409000,7.609408935546875,-1.185807228088379,0.20415791869163513,0.20759522914886475
1790341548587888600,7.625888671875,-0.6861095428466797,-0.5264408588409424,0.3511815667152405
1790341548604348400,7.642348388671875,0.41954517364501953,-0.9699766635894775,-0.558684229850769
1790341548620814000,7.65881396484375,0.16539955139160156,-0.6451061964035034,-0.011162519454956055
1790341548637318000,7.67531787109375,-0.6505403518676758,-0.19995249807834625,-0.2452576458454132
1790341548653816300,7.69181640625,-0.8892240524291992,-0.1318994164466858,-0.5855884552001953
1790341548670263600,7.708263671875,0.5102443695068359,0.6271730065345764,0.2735861539840698
1790341548686711300,7.724711181640625,0.35256385803222656,-0.2684707045555115,-0.012258946895599365
1790341548703159600,7.74115966796875,0.7669610977172852,0.20446884632110596,-1.191011905670166
1790341548719635700,7.7576357421875,0.7973852157592773,0.16331905126571655,-0.1217322051525116
1790341548736082000,7.77408203125,1.0569133758544922,0.5411352515220642,-0.14967624843120575
1790341548752528400,7.7905283203125,-0.7438631057739258,0.7224262952804565,1.010879397392273
1790341548769003000,7.8070029296875,1.1969404220581055,0.015950143337249756,-0.4366530776023865
1790341548785450800,7.82345068359375,-0.6685667037963867,0.15237218141555786,-0.18653731048107147
1790341548801899300,7.839899169921875,-0.5910511016845703,-0.260064959526062,0.41986793279647827
1790341548818346000,7.856345947265625,2.917194366455078,-0.0595775842666626,-1.9800646305084229
1790341548834794000,7.8727939453125,-0.2062997817993164,0.3160132169723511,-0.6474204063415527
1790341548851242500,7.889242431640625,-0.994938850402832,-0.011847972869873047,1.7431063652038574
1790341548867690000,7.90568994140625,1.8612890243530273,0.2259577512741089,-0.61906898021698
1790341548884183300,7.922183349609375,-0.7985630035400391,0.5366276502609253,-0.17269490659236908
1790341548900630500,7.938630615234375,0.009836196899414062,-0.13497960567474365,0.638214647769928
1790341548917077500,7.955077392578125,0.07580089569091797,0.39774060249328613,-0.14998763799667358
1790341548933524000,7.97152392578125,-0.11369895935058594,1.0720494985580444,0.08566102385520935
1790341548949971500,7.987971435546875,-0.7422819137573242,-0.18776583671569824,0.6554909944534302
1790341548966477000,8.00447705078125,0.7742986679077148,0.11744916439056396,-0.5440807342529297
1790341548982924300,8.02092431640625,0.06958961486816406,0.014602422714233398,0.21420621871948242
1790341548999371800,8.037371826171874,-0.21477985382080078,0.1291189193725586,-0.2855086326599121
1790341549015879000,8.05387890625,-0.6047639846801758,-0.11240231990814209,-0.6584690809249878
1790341549032326100,8.070326171875,0.3638572692871094,-0.20714342594146729,0.573449969291687
1790341549048801300,8.08680126953125,0.9884881973266602,0.8627058267593384,-0.4725789427757263
1790341549065150200,8.103150146484374,0.056735992431640625,0.7502467632293701,-1.1618356704711914
1790341549081614300,8.1196142578125,-1.852891445159912,-0.23984259366989136,0.6865986585617065
1790341549098135300,8.13613525390625,1.5673131942749023,0.8955438137054443,-0.27581870555877686
1790341549114584600,8.15258447265625,-0.7490348815917969,-0.37219947576522827,-0.5192365050315857
1790341549131063600,8.1690634765625,-0.3308277130126953,0.1957838535308838,0.7422788143157959
1790341549147513300,8.185513427734374,-0.1760578155517578,-0.625159502029419,-0.5493773221969604
1790341549163979500,8.2019794921875,0.39415931701660156,0.41592729091644287,0.019647061824798584
1790341549180453600,8.21845361328125,-0.23945236206054688,0.33343732357025146,0.35045304894447327
1790341549196903000,8.23490283203125,-0.20526885986328125,0.34833621978759766,-0.35973042249679565
1790341549213318700,8.251318603515625,0.6229839324951172,-0.38657957315444946,-0.8196718692779541
1790341549229722400,8.267722412109375,-0.6348981857299805,-0.9109382629394531,0.20363503694534302
1790341549246241800,8.28424169921875,-0.5115795135498047,0.21898746490478516,-0.11832988262176514
1790341549262764800,8.300764892578124,0.08625411987304688,-0.32476019859313965,0.3542073667049408
1790341549279254800,8.3172548828125,0.17690181732177734,-0.564061164855957,-0.10396027565002441
1790341549295765000,8.333764892578126,-0.18024826049804688,0.7892491817474365,0.3987705111503601
1790341549312266000,8.350265869140625,0.48998546600341797,-0.8745817542076111,-0.12226131558418274
1790341549328746800,8.366746826171875,-0.5969343185424805,0.6796096563339233,0.5525871515274048
1790341549345241600,8.38324169921875,-0.1597309112548828,-0.018327713012695312,-0.466390460729599
1790341549361708800,8.399708740234376,-0.15123462677001953,-1.0183911323547363,0.6224997043609619
1790341549378205700,8.416205810546876,0.6334476470947266,0.12042069435119629,0.7389519810676575
1790341549394706400,8.43270654296875,-0.12612342834472656,0.22400164604187012,-0.2039814442396164
1790341549411230000,8.44922998046875,-0.4608488082885742,0.0019376277923583984,0.5927044153213501
1790341549427724800,8.465724853515624,0.15458297729492188,0.21345996856689453,0.43239688873291016
1790341549444193000,8.482193115234375,-0.6402139663696289,-0.08099883794784546,-0.008555442094802856
1790341549460716000,8.498716064453125,0.41838932037353516,-0.06337273120880127,0.6031701564788818
1790341549477220600,8.515220703125,0.1757335662841797,0.10773241519927979,-0.11002761125564575
1790341549493673000,8.5316728515625,0.36603736877441406,-0.3285003900527954,-0.36071786284446716
1790341549510151400,8.5481513671875,0.19095516204833984,-0.09414947032928467,-0.16338104009628296
1790341549526602200,8.564602294921874,-0.4752836227416992,0.25902223587036133,-0.4536505937576294
1790341549543051000,8.581051025390625,-0.018438339233398438,-0.26796412467956543,0.18990516662597656
1790341549559443500,8.597443359375,-0.4258756637573242,0.005313277244567871,-0.4607367217540741
1790341549575894300,8.613894287109375,0.42510509490966797,-0.33020275831222534,0.04287734627723694
1790341549592346000,8.63034619140625,-1.1809930801391602,0.15858113765716553,0.40447670221328735
1790341549608793900,8.6467939453125,0.2101602554321289,-0.247794508934021,0.15494927763938904
1790341549625242400,8.663242431640626,0.7245254516601562,-0.4678272008895874,-1.077656626701355
1790341549641619000,8.679618896484374,-0.6546726226806641,-0.20643913745880127,0.770111620426178
1790341549658067500,8.6960673828125,0.11544322967529297,-0.43262720108032227,0.10554122924804688
1790341549674515500,8.712515380859376,0.7798709869384766,-0.5735775828361511,-0.2468479573726654
1790341549690962400,8.72896240234375,0.6142387390136719,0.609537661075592,0.6015260219573975
1790341549707440400,8.7454404296875,0.5065727233886719,-0.42921048402786255,-0.3658331632614136
1790341549723889200,8.76188916015625,-0.021627426147460938,-0.3078840970993042,0.14200523495674133
1790341549740408300,8.778408203125,0.14444255828857422,-0.4787709414958954,0.06671503186225891
1790341549756930600,8.7949306640625,0.8632602691650391,-0.26769334077835083,0.26167401671409607
1790341549773424400,8.81142431640625,-0.07299137115478516,-0.6964757442474365,-0.29843035340309143
1790341549789885700,8.8278857421875,-0.12371540069580078,-0.18676191568374634,0.03899690508842468
1790341549806334700,8.844334716796874,0.3425264358520508,0.08769124746322632,1.1048344373703003
1790341549822783000,8.860782958984375,0.5008325576782227,-0.11498963832855225,-0.05527055263519287
1790341549839228000,8.877227783203125,-0.20934295654296875,-0.2604113817214966,-0.027267128229141235
1790341549855671300,8.89367138671875,-0.6503000259399414,-0.2621997594833374,0.16460898518562317
1790341549872116200,8.9101162109375,0.1922454833984375,-0.6396855115890503,-0.028199076652526855
1790341549888563200,8.926563232421875,-0.3623380661010742,-0.38358765840530396,-0.07967120409011841
1790341549905117000,8.943116943359374,0.27484798431396484,-0.56908118724823,-0.139728382229805
1790341549921607000,8.95960693359375,0.2495880126953125,-0.12893378734588623,0.19833990931510925
1790341549938074000,8.97607421875,-0.22211647033691406,0.10656595230102539,-0.16477948427200317
1790341549954551600,8.992551513671875,0.43232154846191406,-0.2335357666015625,0.12654614448547363
1790341549971000300,9.009000244140625,-1.1391925811767578,0.30324989557266235,-0.06521853804588318
1790341549987447600,9.025447509765625,-0.5022983551025391,-0.3864031434059143,0.22631549835205078
1790341550003955500,9.04195556640625,0.28946590423583984,-0.21036255359649658,0.08564680814743042
1790341550020446500,9.058446533203124,-0.8083972930908203,0.03720754384994507,0.18698182702064514
1790341550036951300,9.074951416015624,0.7984075546264648,-0.5860821604728699,-0.1775970757007599
1790341550053382400,9.09138232421875,0.19559288024902344,-0.4127048850059509,0.23644956946372986
1790341550069900000,9.107900146484376,-1.5637598037719727,-0.04646587371826172,-0.06365692615509033
1790341550086364200,9.1243642578125,0.3364524841308594,-0.746971070766449,0.2546558678150177
1790341550102837000,9.1408369140625,0.7089633941650391,-0.5333446860313416,0.051626741886138916
1790341550119289900,9.157289794921875,-0.6108617782592773,0.10584688186645508,-0.8048312664031982
1790341550135737600,9.173737548828125,-0.38527965545654297,0.12903600931167603,0.5437666177749634
1790341550152226800,9.190226806640625,0.4322795867919922,-0.06869018077850342,-0.21616894006729126
1790341550168701000,9.206700927734374,-0.03304767608642578,-0.16179907321929932,-0.6355237364768982
1790341550185209000,9.223208984375,0.6032781600952148,-0.41735056042671204,-0.12829068303108215
1790341550201747000,9.239746826171874,0.10591506958007812,-0.8773407340049744,-0.15444079041481018
1790341550218199300,9.25619921875,0.3881654739379883,0.5822696685791016,-0.47988569736480713
1790341550234562600,9.2725625,0.5820827484130859,0.6501415371894836,0.22203171253204346
1790341550251086300,9.28908642578125,-0.49594783782958984,0.9960588812828064,-0.6453096866607666
1790341550267579400,9.305579345703125,-0.2670936584472656,-0.8044134378433228,-1.2964938879013062
1790341550284086500,9.32208642578125,-0.32566165924072266,0.732225775718689,-0.2508930265903473
1790341550300568600,9.338568603515625,-0.2359933853149414,-0.2062646746635437,-0.29609063267707825
1790341550317018400,9.355018310546875,0.6625576019287109,-0.25868332386016846,-0.3628395199775696
1790341550333497600,9.37149755859375,0.18425941467285156,0.08096688985824585,-0.4449312686920166
1790341550349948000,9.387947998046876,-0.2621736526489258,0.1666610836982727,1.2505991458892822
1790341550366415400,9.404415283203125,0.32560253143310547,0.03929013013839722,-0.3304595649242401
1790341550382861600,9.420861572265625,-0.3336467742919922,0.46987849473953247,-0.4797818064689636
1790341550399328800,9.437328857421875,-0.1593475341796875,-0.5580180883407593,0.19530251622200012
1790341550415801300,9.45380126953125,0.5203399658203125,0.17105412483215332,-0.2677476704120636
1790341550432252200,9.470252197265625,0.45767974853515625,0.07567042112350464,-1.128140926361084
1790341550448776000,9.48677587890625,-0.15488910675048828,-0.3057803511619568,0.35090193152427673
1790341550465222400,9.503222412109375,-0.14311981201171875,0.23901700973510742,-0.2334054410457611
1790341550481739000,9.519739013671876,-0.05037212371826172,-0.014165103435516357,-0.5241378545761108
1790341550498262300,9.53626220703125,-0.8096551895141602,0.038967132568359375,0.13386759161949158
1790341550514725000,9.55272509765625,-0.3035764694213867,0.3166804313659668,-0.6860625147819519
1790341550531169500,9.56916943359375,-0.4653129577636719,-0.07972225546836853,0.019486337900161743
1790341550547611100,9.585611083984375,0.2919492721557617,0.07049000263214111,-0.7105166912078857
1790341550564093700,9.60209375,-0.4950113296508789,-0.5341118574142456,-0.33085930347442627
1790341550580541000,9.618541015625,0.14076805114746094,0.04299500584602356,0.3337222635746002
1790341550596920000,9.634920166015625,0.0250396728515625,-0.37687161564826965,-0.7656445503234863
1790341550613423400,9.65142333984375,-0.18808937072753906,0.1507035195827484,0.008962959051132202
1790341550629870300,9.667870361328125,-0.18972110748291016,0.013687103986740112,-0.1326044201850891
1790341550646315300,9.684315185546875,-0.3251934051513672,0.40608614683151245,-0.08370397984981537
1790341550662760400,9.700760498046876,0.0638570785522461,-0.4487113058567047,-0.333193838596344
1790341550679205600,9.71720556640625,-0.43268585205078125,-0.10514852404594421,-0.7686857581138611
1790341550695682600,9.7336826171875,-1.3341102600097656,-0.8627995252609253,-0.09117414057254791
1790341550712128500,9.75012841796875,0.26616764068603516,0.4301641583442688,0.470424085855484
1790341550728575700,9.76657568359375,-0.9132757186889648,-0.2525346279144287,-0.2856753170490265
1790341550745084400,9.78308447265625,-0.25253772735595703,0.16894185543060303,-0.15929575264453888
1790341550761576000,9.799575927734375,0.5637025833129883,0.25630664825439453,0.5995124578475952
1790341550778085400,9.81608544921875,-0.8804311752319336,0.15447592735290527,-0.8357559442520142
1790341550794533600,9.83253369140625,-0.12703704833984375,0.36604779958724976,0.1721630096435547
1790341550810980600,9.848980712890626,0.3751640319824219,-0.30525699257850647,0.0008085966110229492
1790341550827430700,9.8654306640625,0.7646331787109375,0.02864748239517212,-0.4196229577064514
1790341550843904000,9.881904052734376,0.012858390808105469,-0.04189273715019226,-0.13541509211063385
1790341550860405800,9.89840576171875,-0.32678794860839844,0.10107064247131348,0.14005160331726074
1790341550876900600,9.914900634765624,0.02329254150390625,-0.48586323857307434,-0.05633673071861267
1790341550893393200,9.93139306640625,0.6964988708496094,-0.19688042998313904,-0.29666805267333984
1790341550909858300,9.9478583984375,-0.8280410766601562,1.3098406791687012,0.26132071018218994
1790341550926389200,9.96438916015625,-0.03315544128417969,-0.430122971534729,-0.5678950548171997
1790341550942927000,9.980927001953125,-0.14360904693603516,1.2971854209899902,0.29953503608703613
1790341550959377700,9.997377685546875,-0.9413537979125977,-0.11837700009346008,0.5785796642303467
1790341550975828700,10.013828857421874,0.34790897369384766,0.2693209648132324,-0.5439252853393555
1790341550992308200,10.03030810546875,0.2249736785888672,0.003103792667388916,0.36003294587135315
1790341551008759000,10.046759033203125,0.57244873046875,0.48759785294532776,1.0274384021759033
1790341551025209600,10.063209716796875,-0.19369029998779297,-0.5554304122924805,-0.4732280671596527
1790341551041659000,10.079658935546876,0.611180305480957,0.43586108088493347,0.5951626896858215
1790341551057967600,10.095967529296875,0.5762691497802734,0.028642505407333374,-0.15773001313209534
1790341551074348000,10.11234814453125,-0.6107187271118164,0.12240663170814514,-0.30662593245506287
1790341551090759400,10.128759521484374,0.3001260757446289,-0.9740002155303955,0.43569979071617126
1790341551107206400,10.145206298828125,0.26957035064697266,0.3199295997619629,-0.41372621059417725
1790341551123653400,10.1616533203125,0.12135696411132812,-0.6657228469848633,-0.10834681987762451
1790341551140102700,10.1781025390625,0.061415672302246094,-0.18082943558692932,0.39802101254463196
1790341551156551400,10.194551513671875,-0.8352346420288086,0.26892024278640747,-0.14524470269680023
1790341551172995800,10.210995849609375,-0.5207023620605469,-0.02970638871192932,0.26710793375968933
1790341551189473500,10.2274736328125,-0.0027942657470703125,0.16967672109603882,0.5433406233787537
1790341551205922800,10.2439228515625,0.23759174346923828,-0.15668687224388123,0.0003127157688140869
1790341551222372000,10.2603720703125,-0.3404121398925781,-0.2764861583709717,-1.1112014055252075
1790341551238849300,10.276849365234375,0.18593978881835938,0.37136468291282654,0.3840821385383606
1790341551255298000,10.293298095703125,0.5358104705810547,0.5118207931518555,-0.0545041561126709
1790341551271747300,10.309747314453125,-1.1348953247070312,0.18795225024223328,-0.8810945153236389
1790341551288194800,10.32619482421875,-0.16208171844482422,-0.23975498974323273,0.5119151473045349
1790341551304656100,10.34265625,-0.12807083129882812,-0.16353410482406616,-0.5424297451972961
1790341551321105700,10.359105712890624,0.05174732208251953,0.8477833271026611,-0.1370290368795395
1790341551337553700,10.3755537109375,-1.077641487121582,-0.2682340145111084,0.11378458142280579
1790341551354010000,10.392010009765626,-0.23968124389648438,0.04064375162124634,-0.09087841212749481
1790341551370507500,10.408507568359376,-0.19451141357421875,0.22947311401367188,-0.4395720064640045
1790341551387026700,10.425026611328125,0.011056900024414062,-0.026438504457473755,-0.3097427785396576
1790341551403482600,10.441482666015625,-0.7533950805664062,-0.27781903743743896,-0.19755712151527405
1790341551419928300,10.45792822265625,0.3421773910522461,-0.14413610100746155,0.5354334115982056
1790341551436409300,10.474409423828124,0.24313735961914062,0.4484359920024872,0.032918304204940796
1790341551452860000,10.49085986328125,-0.1525125503540039,-0.17175418138504028,0.01751089096069336
1790341551469310200,10.507310302734375,0.28278636932373047,0.8613218665122986,0.4523423910140991
1790341551485787400,10.523787353515624,-0.36345481872558594,-1.0466090440750122,-0.5637507438659668
1790341551502279200,10.540279052734375,0.895843505859375,0.8311711549758911,-0.2518027126789093
1790341551518738700,10.55673876953125,0.314697265625,-0.7570717334747314,0.471147358417511
1790341551535218000,10.573218017578125,0.7441167831420898,-0.1340063214302063,0.3115975558757782
1790341551551667500,10.58966748046875,0.2685108184814453,0.7734237909317017,-0.26561999320983887
1790341551568184300,10.606184326171874,-0.3763151168823242,-0.12621542811393738,0.20869529247283936
1790341551584632600,10.622632568359375,0.3623619079589844,0.7531903982162476,0.2787950932979584
1790341551600092700,10.6380927734375,-0.36922645568847656,-0.22975683212280273,-1.1420239210128784
1790341551616539000,10.654538818359375,-0.8688621520996094,-0.2182755470275879,0.09868115186691284
1790341551633017000,10.67101708984375,-0.8178539276123047,-0.04740375280380249,0.965994119644165
1790341551649505500,10.687505615234375,-0.4235219955444336,-0.6136369109153748,-0.8555591106414795
1790341551665949000,10.703948974609375,-0.49857521057128906,0.5276878476142883,0.8911128044128418
1790341551682362000,10.720362060546876,0.20402145385742188,-0.22223180532455444,0.4216175973415375
1790341551698808600,10.73680859375,0.6124267578125,-0.03731396794319153,-0.8833470344543457
1790341551715330600,10.75333056640625,-0.5348682403564453,-0.06674569845199585,0.44889160990715027
1790341551731821600,10.769821533203125,1.2208309173583984,-0.020207852125167847,-0.23926660418510437
1790341551748274700,10.786274658203125,0.045318603515625,-0.04957273602485657,-1.2664134502410889
1790341551764723700,10.8027236328125,0.4943714141845703,-0.26436978578567505,0.5730260610580444
1790341551781168600,10.819168701171876,0.4833078384399414,0.8534311056137085,-0.0008632838726043701
1790341551797654300,10.835654296875,-0.6610994338989258,-0.38670027256011963,-1.3883469104766846
1790341551814113500,10.852113525390624,0.2058553695678711,0.44531428813934326,1.0410059690475464
1790341551830587100,10.868587158203125,0.8116073608398438,0.2823570966720581,-0.3766981363296509
1790341551847060500,10.885060546875,-1.2522268295288086,-0.20788723230361938,-0.4400686025619507
1790341551863552800,10.901552734375,-0.8835239410400391,-0.40706726908683777,0.53641676902771
1790341551879998200,10.917998291015625,0.7966575622558594,0.6497700214385986,0.26266440749168396
1790341551896479200,10.934479248046875,-0.4177408218383789,0.25574806332588196,-0.9005999565124512
1790341551912926000,10.950926025390626,-0.9925861358642578,-0.0029848217964172363,0.9024330377578735
1790341551929433600,10.96743359375,0.096221923828125,1.2913496494293213,-0.2592075765132904
1790341551945916400,10.98391650390625,-0.36197853088378906,-0.9083927869796753,-0.6682114601135254
1790341551962365700,11.00036572265625,0.3389892578125,0.45056313276290894,0.37114641070365906
1790341551978870500,11.01687060546875,0.7144098281860352,-0.3564647138118744,-0.316119909286499
1790341551995342600,11.033342529296876,0.7316741943359375,-0.3386973738670349,0.17632722854614258
1790341552011818000,11.04981787109375,0.2843494415283203,0.006317943334579468,-0.25021782517433167
1790341552028269300,11.066269287109375,-0.5428457260131836,-1.3353641033172607,0.42350444197654724
1790341552044721700,11.0827216796875,0.937687873840332,-0.006564617156982422,-0.8279895782470703
1790341552061130200,11.099130126953124,-1.4720020294189453,-0.15557247400283813,0.8380843997001648
1790341552077604400,11.115604248046875,0.37931156158447266,0.34950965642929077,0.11741110682487488
1790341552094076000,11.132075927734375,-1.252467155456543,-0.8192558884620667,-0.8434336185455322
1790341552110524000,11.14852392578125,0.8748512268066406,0.41564688086509705,1.1526572704315186
1790341552126968300,11.16496826171875,-1.255350112915039,-0.37931159138679504,-1.2215007543563843
1790341552143414500,11.18141455078125,-0.6773014068603516,0.3534960448741913,0.35975369811058044
1790341552159861000,11.197861083984375,0.44687366485595703,0.31100785732269287,-0.08889934420585632
1790341552176337700,11.214337646484376,-0.4418182373046875,-0.8614758253097534,-0.902045726776123
1790341552192801000,11.230801025390624,0.3741931915283203,0.6518036723136902,-0.2535780072212219
1790341552209247200,11.247247314453125,-0.3696756362915039,-0.4619974195957184,0.058524906635284424
1790341552225723100,11.26372314453125,-0.06732654571533203,0.017790496349334717,-1.0665223598480225
1790341552242172700,11.280172607421875,-0.7082901000976562,-0.16696324944496155,-0.0416485071182251
1790341552258622200,11.296622314453124,0.8538856506347656,0.15175089240074158,0.4223494231700897
1790341552274908700,11.31290869140625,-0.1657724380493164,0.0855366587638855,-0.9472867250442505
1790341552291358200,11.329358154296875,-0.3685598373413086,-0.1985240876674652,0.7541278600692749
1790341552307805000,11.345804931640625,0.48871517181396484,0.857816219329834,-0.05686834454536438
1790341552324298500,11.362298583984375,-0.05722236633300781,-0.2465142160654068,-0.5832693576812744
1790341552340758300,11.37875830078125,0.5776309967041016,1.3746898174285889,0.4051593244075775
1790341552357255400,11.39525537109375,-0.48084068298339844,-0.16993695497512817,-0.8393757343292236
1790341552373744000,11.411744140625,-0.24660778045654297,0.8667410612106323,-0.7385349273681641
1790341552390237200,11.4282373046875,-0.40522098541259766,-0.0008064806461334229,-0.566636323928833
1790341552406731800,11.444731689453125,-0.1301136016845703,-0.23376937210559845,0.5691709518432617
1790341552423257600,11.461257568359375,2.043025016784668,0.2776079475879669,-0.32438716292381287
1790341552439724500,11.477724609375,-1.7374591827392578,-0.5304230451583862,-0.8539099097251892
1790341552456202500,11.494202392578124,0.060782432556152344,-0.267644464969635,0.9901520609855652
1790341552472692000,11.51069189453125,0.6257972717285156,-0.023441433906555176,-0.6726623773574829
1790341552489144300,11.527144287109374,0.11420059204101562,-0.11084401607513428,-1.0316567420959473
1790341552505621800,11.543621826171876,-0.15323734283447266,-0.6609102487564087,0.3136064410209656
1790341552522068200,11.560068115234374,0.741917610168457,0.7329937219619751,0.036738812923431396
1790341552538516200,11.57651611328125,-0.45521068572998047,0.3670467138290405,0.3447726368904114
1790341552554991400,11.592991455078124,-0.36911582946777344,0.039121031761169434,-0.6352431774139404
1790341552571377000,11.609376953125,-0.7937555313110352,0.19699692726135254,-0.48291265964508057
1790341552587849700,11.625849609375,0.06014442443847656,-0.13462552428245544,-0.13493914902210236
1790341552604264200,11.64226416015625,0.13580322265625,0.5605213046073914,-0.33912521600723267
1790341552620692200,11.658692138671874,-1.32794189453125,-0.4834877550601959,-0.06199197471141815
1790341552637165600,11.67516552734375,0.37546443939208984,-0.3137356638908386,0.7081620097160339
1790341552653612500,11.691612548828125,0.2498626708984375,0.1262943148612976,0.04586873948574066
1790341552670032600,11.70803271484375,-0.19100379943847656,0.09963354468345642,0.5809849500656128
1790341552686530800,11.72453076171875,0.7187356948852539,-0.1930811107158661,0.3999335765838623
1790341552703050500,11.741050537109375,-0.3298063278198242,0.9255980253219604,-0.8502958416938782
1790341552719572000,11.757572021484375,-0.8966999053955078,-0.4834024906158447,0.6883336901664734
1790341552736021200,11.774021240234376,1.515096664428711,1.4630991220474243,-0.1395043432712555
1790341552752499500,11.79049951171875,-2.1022849082946777,0.010264039039611816,0.05589699745178223
1790341552768948200,11.8069482421875,-1.3359975814819336,-1.0282199382781982,0.6737295389175415
1790341552785395500,11.8233955078125,2.2923126220703125,1.1204044818878174,-1.1182774305343628
1790341552801870300,11.839870361328124,-1.94077730178833,-1.2951005697250366,0.557226300239563
1790341552818317300,11.8563173828125,0.6729660034179688,0.21723324060440063,-0.35163846611976624
1790341552834793700,11.872793701171876,-0.35993480682373047,-1.3325469493865967,-1.5366612672805786
1790341552851263000,11.889262939453126,0.9014835357666016,-0.1800553798675537,-0.11862324923276901
1790341552867746300,11.905746337890625,-0.5475797653198242,-0.6020106673240662,-0.5508540868759155
1790341552884206300,11.922206298828126,-0.10707759857177734,-0.38949480652809143,-0.20518608391284943
1790341552900650000,11.93864990234375,-1.330270767211914,1.2802265882492065,-0.18331988155841827
1790341552917143800,11.955143798828125,0.7659025192260742,-2.0890817642211914,-0.1918385922908783
1790341552933590500,11.971590576171875,0.1548004150390625,0.0598432719707489,1.5699712038040161
1790341552949979600,11.987979736328125,-1.445033073425293,2.780151605606079,-0.3896864056587219
1790341552966482400,12.004482421875,0.5347318649291992,-2.702112913131714,-0.3064011335372925
1790341552982928100,12.02092822265625,-0.26482105255126953,2.3707804679870605,-0.0802636668086052
1790341552999388000,12.037387939453126,-0.2334890365600586,2.7709109783172607,1.7324388027191162
1790341553015836700,12.053836669921875,2.8197107315063477,-3.6277730464935303,-0.5606305003166199
1790341553032287700,12.070287841796874,1.3931055068969727,2.372389316558838,-1.643013596534729
1790341553048788000,12.0867880859375,-3.3833370208740234,-0.7129887342453003,1.3434282541275024
1790341553065237200,12.1032373046875,0.27779388427734375,2.487403154373169,-0.16636359691619873
1790341553081688000,12.11968798828125,-1.5541553497314453,-2.2116644382476807,-2.252019166946411
1790341553098139100,12.13613916015625,-0.2698221206665039,1.3596469163894653,1.272180199623108
1790341553114558000,12.152557861328125,-0.15921783447265625,-0.9452975392341614,-0.7770189046859741
1790341553130995500,12.168995361328125,-0.4452228546142578,0.5311723947525024,-1.0383851528167725
1790341553147383000,12.185383056640624,-0.5321121215820312,0.13585959374904633,1.1574163436889648
1790341553163849700,12.201849609375,0.48976707458496094,0.3201879858970642,-0.3119056820869446
1790341553180299300,12.21829931640625,-0.11434364318847656,-0.08525334298610687,-0.7563509941101074
1790341553196750000,12.23475,-2.1186647415161133,-0.7144834399223328,1.8414050340652466
1790341553213232400,12.251232421875,3.14743709564209,0.09427060931921005,-0.5782549381256104
1790341553229684000,12.26768408203125,-1.0472097396850586,-0.011317339725792408,1.6153638362884521
1790341553246131500,12.28413134765625,1.375762939453125,1.592430830001831,0.07414551079273224
1790341553262583000,12.3005830078125,1.993535041809082,-0.5614985227584839,-1.156069040298462
1790341553278984200,12.316984130859375,-0.9047355651855469,-0.0444985032081604,1.6626490354537964
1790341553295432000,12.333431884765625,-3.647034168243408,-1.3390976190567017,-3.5556769371032715
1790341553311878000,12.3498779296875,1.8816862106323242,0.5255950689315796,5.68992280960083
1790341553328322600,12.366322509765626,6.258645057678223,2.2712576389312744,3.413689613342285
1790341553344766700,12.3827666015625,-5.82666015625,-2.592641830444336,-3.710282325744629
1790341553361215200,12.39921533203125,-3.3824596405029297,1.0077444314956665,2.689277172088623
1790341553377664000,12.4156640625,-0.4871969223022461,-1.4926786422729492,-0.2917850613594055
1790341553394111200,12.432111328125,-1.203303337097168,1.4999781847000122,0.22662724554538727
1790341553410571300,12.4485712890625,0.2882061004638672,-1.2382701635360718,0.2108806073665619
1790341553427015400,12.465015380859375,-0.36350154876708984,1.1338422298431396,-1.2363076210021973
1790341553443459800,12.4814599609375,-2.274324893951416,-0.914267361164093,0.04713328555226326
1790341553459935700,12.497935791015625,1.5736370086669922,-0.16243529319763184,-0.3955989480018616
1790341553476383200,12.51438330078125,1.2196226119995117,-0.8200207948684692,-1.2619277238845825
1790341553492830000,12.530829833984376,0.4582061767578125,-0.4133792519569397,0.7707633376121521
1790341553509277000,12.54727685546875,1.3867206573486328,0.3129233419895172,-0.11366353929042816
1790341553525721900,12.563721923828124,-0.6654043197631836,0.826130211353302,1.0675404071807861
1790341553542164500,12.58016455078125,-0.23400115966796875,0.3624218702316284,-0.19268274307250977
1790341553558607000,12.596607177734375,-0.886688232421875,-0.12101081013679504,0.7066707611083984
1790341553575010600,12.613010498046876,-1.3936071395874023,-0.03136350214481354,-0.6147721409797668
1790341553591454000,12.629453857421876,0.8833074569702148,-0.8906108736991882,-0.7183904051780701
1790341553607902200,12.645902099609375,0.06186676025390625,1.1981092691421509,0.23291663825511932
1790341553624361200,12.662361328125,0.7129268646240234,-0.2072746902704239,0.11342722177505493
1790341553640810000,12.67881005859375,1.5056085586547852,0.24268142879009247,-0.17367371916770935
1790341553657287000,12.695286865234374,0.725947380065918,0.04529114067554474,0.32087716460227966
1790341553673732400,12.711732421875,1.0149660110473633,0.19590330123901367,0.8009373545646667
1790341553690175000,12.728175048828126,-0.5699100494384766,-0.43028703331947327,-1.2336677312850952
1790341553706650400,12.744650390625,-0.14815616607666016,-0.6216180324554443,0.42522314190864563
1790341553723097900,12.761097900390626,0.7041397094726562,0.1260007917881012,-0.8010506629943848
1790341553739545600,12.777545654296874,-0.7279815673828125,-1.08052396774292,-0.7413419485092163
1790341553755993900,12.793993896484375,0.0937347412109375,0.6206550598144531,0.7459542751312256
1790341553772441300,12.81044140625,-0.06281280517578125,-0.26475805044174194,-0.07727289944887161
1790341553788891100,12.82689111328125,0.43837547302246094,0.5831091403961182,-0.8983079195022583
1790341553805336800,12.8433369140625,-0.1524200439453125,0.01014527678489685,-0.78248131275177
1790341553821784000,12.8597841796875,-0.38411712646484375,0.3577761948108673,0.0937700867652893
1790341553838231000,12.87623095703125,-0.3379077911376953,-0.10791069269180298,-0.8364629149436951
1790341553854680800,12.892680908203126,1.042283058166504,-0.08216342329978943,0.0054923961870372295
1790341553871127000,12.909126953125,0.9026803970336914,0.5632036328315735,-0.0939708948135376
1790341553887573500,12.925573486328124,-0.8044939041137695,-0.3691835403442383,0.6978278160095215
1790341553904052500,12.942052490234374,1.2923698425292969,0.5930616855621338,1.3759044408798218
1790341553920498200,12.958498291015625,0.526127815246582,0.6935476064682007,-0.22601889073848724
1790341553936944000,12.974944091796875,-0.23966503143310547,0.2631586492061615,1.086369514465332
1790341553953352400,12.9913525390625,-0.4380064010620117,-0.033963412046432495,0.03782837092876434
1790341553969800700,13.00780078125,-0.84002685546875,0.08328041434288025,-0.7038033604621887
1790341553986250800,13.024250732421875,-1.107818603515625,-0.7351455688476562,0.9946379661560059
1790341554002698800,13.04069873046875,0.8077468872070312,0.5919514894485474,0.35655295848846436
1790341554019146000,13.05714599609375,-0.4446401596069336,-0.3621377646923065,-0.966890811920166
1790341554035592200,13.07359228515625,-1.378732681274414,0.1222313940525055,0.9730811715126038
1790341554052039200,13.0900390625,0.2912473678588867,-0.08713296055793762,-0.14819151163101196
1790341554068419300,13.10641943359375,-0.3972053527832031,0.2893969416618347,-0.6665303111076355
1790341554084832500,13.12283251953125,-0.5753326416015625,0.5856341123580933,1.189576506614685
1790341554101247500,13.13924755859375,0.659419059753418,-0.12640665471553802,0.2262558788061142
1790341554117693700,13.155693603515624,0.541895866394043,-0.17516237497329712,-0.7567744851112366
1790341554134141700,13.1721416015625,-0.30089664459228516,-0.06101648509502411,0.04045490920543671
1790341554150611000,13.18861083984375,1.0256385803222656,-0.2152891606092453,-0.4597303867340088
1790341554167057400,13.205057373046875,0.4343433380126953,0.06947587430477142,-0.35570526123046875
1790341554183509800,13.221509765625,0.15446758270263672,0.14401337504386902,0.45115137100219727
1790341554200022300,13.238022216796875,0.3531932830810547,0.05652587488293648,-0.8199009299278259
1790341554216490500,13.254490478515624,0.10653400421142578,0.6937188506126404,0.11260916292667389
1790341554232937700,13.270937744140625,0.3840599060058594,0.5371248722076416,-0.328840434551239
1790341554249383000,13.2873828125,0.4030332565307617,0.20749318599700928,0.10741250962018967
1790341554265830400,13.303830322265625,0.25930118560791016,0.20684173703193665,0.7737202644348145
1790341554282261200,13.32026123046875,-0.2530641555786133,0.3143617808818817,-0.06625497341156006
1790341554298658600,13.336658447265625,0.7406015396118164,0.14013712108135223,0.5224088430404663
1790341554315104800,13.353104736328126,-0.056636810302734375,0.029541995376348495,0.16513100266456604
1790341554331548200,13.369548095703125,-1.2655267715454102,0.8392009735107422,-0.2712467908859253
1790341554348051000,13.386051025390625,1.0952606201171875,0.30102935433387756,0.20461875200271606
1790341554364505300,13.40250537109375,-0.41774463653564453,0.31027770042419434,-0.3254507780075073
1790341554380966400,13.41896630859375,-1.6313056945800781,0.5119037628173828,-0.687850296497345
1790341554397436200,13.435436279296875,0.8086462020874023,-0.027720123529434204,-0.13503673672676086
1790341554413875500,13.45187548828125,1.366795539855957,-0.3211205005645752,0.08507083356380463
1790341554430320000,13.468320068359375,-1.0438404083251953,0.4077027440071106,-0.2295496165752411
1790341554446790700,13.484790771484375,-1.000563621520996,0.5720996260643005,-0.7126766443252563
1790341554463230500,13.50123046875,0.9003677368164062,-0.08563123643398285,-0.07266852259635925
1790341554479671300,13.51767138671875,0.05496406555175781,-0.23665308952331543,-0.43332791328430176
1790341554496111400,13.534111328125,-0.22791194915771484,-0.21321187913417816,-0.6044449210166931
1790341554512555300,13.55055517578125,0.26736927032470703,-0.5948801636695862,-0.47203528881073
1790341554529002500,13.56700244140625,0.3458442687988281,-0.8074714541435242,-0.20108678936958313
1790341554545447700,13.58344775390625,-0.3298501968383789,-0.9231230020523071,-0.5765464305877686
1790341554561894700,13.599894775390625,0.8385581970214844,-1.3176885843276978,-0.49791476130485535
1790341554578344000,13.616343994140625,0.38155555725097656,-1.0757204294204712,-0.08777551352977753
1790341554594790400,13.632790283203125,-0.0275726318359375,-0.6247050166130066,0.7536587119102478
1790341554611238700,13.64923876953125,-0.8844242095947266,-0.17353512346744537,1.027164101600647
1790341554627665400,13.66566552734375,0.34880733489990234,-0.06197282671928406,2.0855965614318848
1790341554644134700,13.682134765625,-0.13938236236572266,-0.4777979552745819,2.2178852558135986
1790341554660578600,13.69857861328125,-0.18951416015625,-1.2883613109588623,2.4135642051696777
1790341554677020400,13.7150205078125,-0.562586784362793,-0.30293935537338257,-0.18072549998760223
1790341554693493200,13.7314931640625,-0.1764354705810547,-0.49877917766571045,-0.3529603183269501
1790341554709954600,13.74795458984375,-0.02023601531982422,0.08458728343248367,0.011511057615280151
1790341554726437000,13.76443701171875,1.3501825332641602,0.8416581749916077,0.037072330713272095
1790341554742886700,13.78088671875,-1.1029462814331055,-0.46465641260147095,-0.48603639006614685
1790341554759333600,13.797333740234375,0.579045295715332,-0.01172357052564621,0.4082414209842682
1790341554775811800,13.813811767578125,0.38892078399658203,-0.07495655119419098,0.25522923469543457
1790341554792264700,13.8302646484375,0.882843017578125,0.15976861119270325,-0.08443477749824524
1790341554808745200,13.8467451171875,0.3973379135131836,0.020072251558303833,-0.5424435138702393
1790341554825193200,13.863193115234376,0.4192342758178711,0.8110706806182861,0.555685818195343
1790341554841667600,13.87966748046875,0.44092845916748047,0.6758261322975159,0.11765936017036438
1790341554858119400,13.896119384765624,0.6929683685302734,0.6875429153442383,0.06036767363548279
1790341554874567000,13.91256689453125,0.0707712173461914,0.37575024366378784,0.29789796471595764
1790341554891036700,13.92903662109375,-0.11244487762451172,0.5818121433258057,0.04348236322402954
1790341554907484400,13.945484375,-1.6200342178344727,0.8767129778862,0.06984353065490723
1790341554923933000,13.961932861328124,-2.111858367919922,0.9722635746002197,0.8420436382293701
1790341554940435700,13.978435791015626,-0.8443174362182617,0.825857400894165,0.1186181902885437
1790341554956878000,13.994878173828125,-0.35377979278564453,-0.33106160163879395,-0.3024244010448456
1790341554973268700,14.011268798828125,-0.057900428771972656,0.2726615071296692,0.6305720210075378
1790341554989714700,14.027714599609375,0.11998844146728516,-1.8561632633209229,0.6296293139457703
1790341555006165000,14.0441650390625,0.7193126678466797,1.7518243789672852,0.44732415676116943
1790341555022673000,14.0606728515625,-0.7409553527832031,-1.9819915294647217,-0.2143547683954239
1790341555039163100,14.0771630859375,0.9880790710449219,2.0216915607452393,-0.09368784725666046
1790341555055590000,14.09358984375,-1.7285528182983398,-1.116919994354248,-0.14361053705215454
1790341555072057600,14.1100576171875,0.5139522552490234,2.1400303840637207,-0.33593833446502686
1790341555088534500,14.126534423828126,-1.8955411911010742,-0.9598506093025208,0.9467429518699646
1790341555104980500,14.14298046875,2.2529220581054688,0.28533944487571716,0.24730348587036133
1790341555121429800,14.1594296875,-0.0036058425903320312,-0.07861018180847168,0.37912657856941223
1790341555137941200,14.175941162109375,0.653559684753418,-0.4239186942577362,0.30602461099624634
1790341555154385700,14.1923857421875,1.5413103103637695,-0.038224101066589355,-0.2886829972267151
1790341555170832400,14.208832275390625,-0.37558841705322266,-0.5490363240242004,0.3432059586048126
1790341555187308300,14.225308349609374,0.7578802108764648,0.5122802257537842,0.5894457101821899
1790341555203754000,14.24175390625,-0.3298501968383789,-0.7725418210029602,-0.37367814779281616
1790341555220198700,14.25819873046875,1.0982389450073242,0.9989096522331238,0.17066240310668945
1790341555236641800,14.274641845703124,-0.18203163146972656,0.1379675269126892,0.15194562077522278
1790341555253090800,14.2910908203125,-0.4796628952026367,0.3491748571395874,-0.20154453814029694
1790341555269539000,14.3075390625,-0.39120960235595703,0.5938583612442017,0.019292473793029785
1790341555285993000,14.323992919921874,-0.42160892486572266,0.7375677824020386,0.01515805721282959
1790341555302383600,14.340383544921876,-0.5693788528442383,0.4224529266357422,-0.0868617594242096
1790341555318831900,14.356831787109375,0.3508167266845703,1.0444819927215576,-0.6967540979385376
1790341555335311000,14.37331103515625,-1.0819330215454102,-0.0362170934677124,-0.2310853749513626
1790341555351801300,14.38980126953125,-0.29440975189208984,0.17493760585784912,-0.003535240888595581
1790341555368263700,14.406263671875,0.034125328063964844,0.7765389680862427,-0.037695884704589844
1790341555384734500,14.422734375,-0.2498455047607422,-0.6006945371627808,-0.01059180498123169
1790341555401210600,14.439210693359374,0.9975423812866211,0.5492324829101562,0.417991042137146
1790341555417725400,14.455725341796875,-0.19351577758789062,-0.49038755893707275,-0.4627959132194519
1790341555434242000,14.472241943359375,-0.1692190170288086,0.40202999114990234,0.15060964226722717
1790341555450702600,14.48870263671875,0.1147928237915039,0.11902034282684326,0.16442307829856873
1790341555467158000,14.505157958984375,-0.8013687133789062,0.4002116918563843,-0.5474611520767212
1790341555483632000,14.521632080078126,-1.1466522216796875,1.052376389503479,-0.23921111226081848
1790341555500074800,14.53807470703125,-0.6562595367431641,-0.45075011253356934,-0.4655103087425232
1790341555516521500,14.554521484375,0.6794195175170898,0.1595991849899292,-0.0015697181224822998
1790341555532972800,14.570972900390625,-0.7182207107543945,-0.39021092653274536,-0.10773739218711853
1790341555549420500,14.587420654296874,-0.0126800537109375,-0.35767465829849243,0.04228818416595459
1790341555565868800,14.603868896484375,0.6150388717651367,0.3794175386428833,0.0173569917678833
1790341555582339600,14.620339599609375,-0.19269180297851562,-0.29030105471611023,-0.09211137890815735
1790341555598858200,14.636858154296876,1.3413867950439453,-0.31426793336868286,-0.43412449955940247
1790341555615301600,14.653301513671876,0.6483163833618164,-0.2639799118041992,0.04830506443977356
1790341555631714300,14.66971435546875,0.6566619873046875,-0.561240553855896,-0.5532011985778809
1790341555648199200,14.68619921875,0.7976064682006836,-0.041919171810150146,0.16304877400398254
1790341555664686800,14.702686767578125,0.031966209411621094,0.01330074667930603,0.03870499134063721
1790341555681203500,14.719203369140626,0.047011375427246094,-0.16287626326084137,-0.18291911482810974
1790341555697666800,14.735666748046874,-0.06305885314941406,1.334854006767273,-0.4154357314109802
1790341555714113500,14.752113525390625,-0.9415769577026367,0.5362143516540527,-1.2025673389434814
1790341555730559500,14.7685595703125,-0.9767694473266602,0.44902247190475464,-0.7614058256149292
1790341555747005400,14.78500537109375,-0.7731838226318359,0.27437227964401245,-0.7666937708854675
1790341555763450600,14.80145068359375,0.7046194076538086,0.1006397008895874,-0.28476718068122864
1790341555779898600,14.817898681640624,-0.13234233856201172,0.2412140965461731,-0.42586183547973633
1790341555796344000,14.834343994140625,0.22066402435302734,0.35970503091812134,0.26616936922073364
1790341555812793600,14.850793701171876,0.07819652557373047,0.21890011429786682,0.5042644143104553
1790341555829243400,14.867243408203125,-0.4783668518066406,0.11782020330429077,0.6152905225753784
1790341555845693700,14.883693603515624,0.16254520416259766,0.018233783543109894,1.4140355587005615
1790341555862139600,14.9001396484375,0.20264053344726562,-0.630465567111969,1.2126412391662598
1790341555878611000,14.91661083984375,0.8922338485717773,-1.1127363443374634,1.0155377388000488
1790341555895057700,14.9330576171875,0.7055435180664062,-1.4128611087799072,1.134187936782837
1790341555911502300,14.94950244140625,0.36332130432128906,-1.7178540229797363,0.961993932723999
1790341555927975400,14.965975341796875,0.43071651458740234,-2.07995343208313,0.610296905040741
1790341555944420000,14.982420166015626,0.1367778778076172,-0.970906138420105,-0.6327306628227234
1790341555960864300,14.9988642578125,-0.5116033554077148,-0.7226092219352722,-1.6598763465881348
1790341555977147100,15.015147216796874,0.7919721603393555,0.02066001296043396,1.089365005493164
1790341555993595000,15.031594970703125,0.10560035705566406,-0.22084689140319824,-0.2026577591896057
1790341556010042600,15.048042724609376,-0.9835290908813477,0.010958552360534668,-0.3637179434299469
1790341556026535700,15.06453564453125,-0.6935901641845703,-0.7561281323432922,0.5222572088241577
1790341556043004700,15.081004638671875,-0.2580299377441406,0.7494816780090332,0.7587615251541138
1790341556059443500,15.097443359375,-0.2871274948120117,-0.309588760137558,0.12915530800819397
1790341556075927000,15.113927001953124,-0.9506292343139648,-0.4885703921318054,0.7707254886627197
1790341556092382200,15.13038232421875,-0.8354330062866211,0.249496728181839,1.3972750902175903
1790341556108857600,15.146857666015626,-1.0367136001586914,-1.1395691633224487,-0.49915269017219543
1790341556125262800,15.163262939453125,1.3842592239379883,-2.267416000366211,0.183151513338089
1790341556141708500,15.17970849609375,1.0151472091674805,1.132914423942566,1.829966425895691
1790341556158159000,15.1961591796875,0.39002132415771484,-3.2402358055114746,-0.3557252585887909
1790341556174667300,15.212667236328125,0.5045499801635742,1.8075693845748901,-0.4290919601917267
1790341556191114200,15.2291142578125,-0.5809698104858398,1.0704762935638428,-0.8956419825553894
1790341556207589600,15.245589599609374,-2.3591513633728027,0.44122064113616943,-3.840317726135254
1790341556224040400,15.26204052734375,-1.2576866149902344,-3.1437244415283203,2.408836841583252
1790341556240493600,15.27849365234375,3.3223609924316406,3.6288630962371826,2.2591636180877686
1790341556256970800,15.294970703125,-2.763284206390381,-1.5388728380203247,-4.270229816436768
1790341556273424000,15.311423828125,0.9490804672241211,3.66652512550354,0.6513702869415283
1790341556289898000,15.32789794921875,-2.7468161582946777,-2.537809371948242,1.7643969058990479
1790341556306345000,15.344344970703125,2.823566436767578,2.112703561782837,-2.1769843101501465
1790341556322806300,15.36080615234375,-3.887507915496826,-1.6210883855819702,-0.8273144960403442
1790341556339253500,15.37725341796875,0.5541496276855469,-0.027656670659780502,1.452559232711792
1790341556355701800,15.39370166015625,0.3117971420288086,2.397024393081665,-1.6401336193084717
1790341556372167400,15.41016748046875,-0.7534885406494141,-0.41662168502807617,1.188663125038147
1790341556388617000,15.426616943359376,1.9862070083618164,1.7578747272491455,2.102546215057373
1790341556405069000,15.443069091796875,-1.6251697540283203,0.3476206064224243,-1.3778586387634277
1790341556421559300,15.459559326171876,-0.9424009323120117,-1.4771735668182373,0.7001644372940063
1790341556438007800,15.4760078125,2.1202993392944336,-3.314760446548462,0.11956405639648438
1790341556454458400,15.492458251953124,4.8711347579956055,2.236159086227417,2.752570152282715
1790341556470901000,15.50890087890625,-2.630845546722412,-2.96313738822937,0.9200897812843323
1790341556487350300,15.525350341796875,-0.060057640075683594,0.48629024624824524,-2.1888821125030518
1790341556503797800,15.5417978515625,8.149894714355469,9.428903579711914,-1.437775731086731
1790341556520252200,15.558252197265626,-8.6433744430542,-0.6161671280860901,-0.25168678164482117
1790341556536751000,15.574751220703124,0.13077640533447266,-0.9692851901054382,-5.120087623596191
1790341556553201400,15.591201416015625,-6.237288475036621,-2.4370222091674805,-2.331244468688965
1790341556569680600,15.6076806640625,-2.031900405883789,-1.895389437675476,2.617341995239258
1790341556586128400,15.62412841796875,7.367107391357422,-2.092348575592041,1.399984359741211
1790341556602505000,15.6405048828125,-2.581103801727295,1.1429176330566406,-4.149490833282471
1790341556618969600,15.656969482421875,0.3796253204345703,1.197211742401123,2.472294807434082
1790341556635422000,15.673421875,0.8463935852050781,-1.073681354522705,1.1074650287628174
1790341556651805700,15.6898056640625,-0.2971334457397461,1.481177806854248,-3.3478355407714844
1790341556668284200,15.7062841796875,-1.775991439819336,-1.3253767490386963,1.8779704570770264
1790341556684749800,15.722749755859375,1.303013801574707,0.5553970336914062,0.15802884101867676
1790341556701222700,15.73922265625,0.5029220581054688,-0.3375895023345947,-1.3883860111236572
1790341556717719800,15.7557197265625,0.34056854248046875,0.2837696373462677,1.9003064632415771
1790341556734166300,15.772166259765624,-0.20096588134765625,0.6306244730949402,-1.0543103218078613
1790341556750611000,15.78861083984375,-0.6945123672485352,-0.013797786086797714,-0.5430243611335754
1790341556767059000,15.805058837890625,0.21084117889404297,-0.3033847212791443,0.9353436231613159
1790341556783548200,15.821548095703125,0.46920204162597656,0.3630284368991852,-0.3759025037288666
1790341556800043500,15.83804345703125,-0.4456453323364258,-0.20457063615322113,0.19550371170043945
1790341556816525600,15.854525634765626,0.004572868347167969,0.09651164710521698,0.502253532409668
1790341556833013200,15.87101318359375,0.12413597106933594,0.2526395320892334,-0.34844738245010376
1790341556849489200,15.8874892578125,-0.17993736267089844,-0.44620126485824585,-0.11643669009208679
1790341556865967900,15.9039677734375,1.4601945877075195,0.29826945066452026,0.244491308927536
1790341556882463000,15.920462890625,0.023659706115722656,0.007140800356864929,-0.4194386601448059
1790341556898942700,15.936942626953124,0.38027000427246094,0.1787758767604828,-0.32053735852241516
1790341556915459600,15.95345947265625,0.2750816345214844,0.5539368391036987,0.5086069107055664
1790341556931946200,15.9699462890625,-0.05788993835449219,0.064188152551651,-0.6941357254981995
1790341556948413200,15.9864130859375,0.7179594039916992,0.42760220170021057,0.09117811918258667
1790341556964874200,16.002874267578125,0.29669761657714844,-0.2541254460811615,0.23004835844039917
1790341556981416200,16.019416259765624,0.3034639358520508,0.10477136075496674,-0.244904026389122
1790341556997905700,16.03590576171875,0.8901042938232422,0.5533761382102966,0.42617157101631165
1790341557014397000,16.05239697265625,-0.08219146728515625,0.1556919366121292,0.41914746165275574
1790341557030861800,16.06886181640625,-0.5731277465820312,0.5595188736915588,-0.8667994737625122
1790341557047354000,16.08535400390625,-0.7047052383422852,0.359413743019104,0.2940398156642914
1790341557063802000,16.101802001953125,-0.3694610595703125,0.2521781027317047,0.2130591869354248
1790341557080248000,16.118248046875,-0.36242103576660156,-0.5002449154853821,-1.2467185258865356
1790341557096762600,16.1347626953125,0.9379434585571289,-0.2917419672012329,0.4015711545944214
1790341557113244200,16.151244140625,0.1815176010131836,-0.6477658748626709,0.37565740942955017
1790341557129740300,16.167740234375,-0.012729644775390625,0.744520902633667,-0.4654151201248169
1790341557146256100,16.184256103515626,-0.6851425170898438,-0.6839272975921631,0.7514495253562927
1790341557162775000,16.200775146484375,0.14077281951904297,0.3902033567428589,-0.6980160474777222
1790341557179260200,16.21726025390625,0.13611984252929688,-0.012724202126264572,-0.10048133134841919
1790341557195760000,16.233760009765625,0.5911149978637695,-0.1919422745704651,0.09562861919403076
1790341557212220200,16.25022021484375,-0.1010284423828125,0.5650150179862976,-0.14921581745147705
1790341557228735200,16.2667353515625,-0.13927936553955078,0.19054779410362244,-0.006759434938430786
1790341557245222700,16.28322265625,-0.735443115234375,0.1336054652929306,0.59429532289505
1790341557261715500,16.299715576171874,-0.6084156036376953,-0.9018288850784302,-0.2469506561756134
1790341557278214000,16.3162138671875,0.9502954483032227,0.39234331250190735,0.17206144332885742
1790341557294673700,16.332673583984374,-0.44821643829345703,-1.5244836807250977,-0.07796397805213928
1790341557311200000,16.349199951171876,1.3572187423706055,0.9597993493080139,0.6517717838287354
1790341557327732500,16.365732421875,-0.8144207000732422,0.38045424222946167,-1.0576415061950684
1790341557344214800,16.38221484375,-1.9168787002563477,-0.5241727828979492,-0.9655014276504517
1790341557360685600,16.398685546875,0.5909633636474609,0.8787845373153687,2.237863063812256
1790341557377161000,16.415160888671874,-1.5810861587524414,-1.8596962690353394,-0.620866060256958
1790341557393668400,16.43166845703125,1.322676658630371,1.3913497924804688,0.3772777020931244
1790341557410151200,16.448151123046873,-0.9938678741455078,-0.4178403913974762,1.7032380104064941
1790341557426607000,16.464607177734376,-1.4157695770263672,-0.044553983956575394,-1.5590438842773438
1790341557443063300,16.481063232421874,-0.38343334197998047,0.9730135202407837,0.5379190444946289
1790341557459525000,16.497525146484374,-0.7015104293823242,-1.65595543384552,1.0619369745254517
1790341557476033300,16.514033203125,1.4745502471923828,1.2083401679992676,-0.9003696441650391
1790341557492521500,16.530521484375,-0.3566465377807617,-0.4144187569618225,1.8852216005325317
1790341557509004500,16.547004638671876,-0.4498462677001953,-0.7860345244407654,-0.40482592582702637
1790341557525491200,16.5634912109375,0.3235645294189453,0.08693934977054596,-0.6274285316467285
1790341557541986000,16.579986083984377,0.4602775573730469,-0.8751378655433655,1.6921671628952026
1790341557558478000,16.59647802734375,0.9461879730224609,0.8707123398780823,-0.6287786960601807
1790341557574967800,16.6129677734375,-1.9343538284301758,-0.5092411637306213,-0.25791019201278687
1790341557591459000,16.629458984375,-0.17667293548583984,0.4497789144515991,0.12710395455360413
1790341557608011300,16.64601123046875,0.4289588928222656,-0.3380333185195923,-0.7900093793869019
1790341557624509200,16.66250927734375,1.2882881164550781,1.030670404434204,-0.08444949984550476
1790341557641027000,16.679027099609375,-0.7371063232421875,-0.7131738066673279,-0.1963077187538147
1790341557657494800,16.695494873046876,0.14645957946777344,0.214974507689476,-0.9888770580291748
1790341557673981400,16.7119814453125,0.17958927154541016,-0.17762279510498047,0.3675841987133026
1790341557690439400,16.728439453125,0.02426433563232422,0.1792641282081604,1.6126130819320679
1790341557706935800,16.744935791015624,-1.1424379348754883,-0.9647838473320007,-0.9969561696052551
1790341557723438800,16.76143896484375,1.3655681610107422,0.4536278247833252,1.8458454608917236
1790341557739927800,16.777927734375,-1.9936423301696777,-0.9330772161483765,-0.9985805749893188
1790341557756416300,16.794416259765626,-0.4176826477050781,1.0490236282348633,0.9737733006477356
1790341557772917800,16.810917724609375,-1.4136543273925781,-1.2213793992996216,-0.5566778779029846
1790341557789411600,16.82741162109375,0.5928268432617188,0.40627288818359375,0.49538424611091614
1790341557805929000,16.843928955078123,-0.3838624954223633,-0.8955734968185425,-0.6043038964271545
1790341557822381300,16.86038134765625,1.222620964050293,0.5367839336395264,-0.35909056663513184
1790341557838865400,16.876865478515626,-0.4578094482421875,-0.42413488030433655,1.296634316444397
1790341557855389700,16.8933896484375,-0.1445913314819336,0.5956593155860901,-1.6653766632080078
1790341557871880700,16.909880615234375,0.35830020904541016,0.3370898962020874,0.3599095940589905
1790341557888359700,16.926359619140626,0.03282928466796875,0.059108760207891464,-0.21494925022125244
1790341557904875300,16.942875244140627,1.0359840393066406,0.7202666401863098,-0.15929007530212402
1790341557921357600,16.959357666015624,0.2986469268798828,0.4580202102661133,0.8756369352340698
1790341557937818000,16.975818115234375,0.13335418701171875,0.22557595372200012,0.15220537781715393
1790341557954308400,16.992308349609374,-1.1739864349365234,0.7767691612243652,-0.3765101730823517
1790341557970774000,17.00877392578125,-1.4109001159667969,-0.5860599279403687,0.2344890534877777
1790341557987257600,17.025257568359375,0.705596923828125,0.051211729645729065,-0.40805375576019287
1790341558003750100,17.041750244140626,0.4280691146850586,-0.1700490415096283,0.2291889786720276
1790341558020251000,17.0582509765625,-0.09389114379882812,-0.22668084502220154,-0.19416391849517822
1790341558036744400,17.074744384765626,-0.12255191802978516,0.20710259675979614,0.5821248292922974
1790341558053226500,17.0912265625,-0.46944427490234375,-0.24186637997627258,0.4878943860530853
1790341558069710600,17.107710693359376,-0.7307252883911133,-0.12377598136663437,-0.8895969390869141
1790341558086167600,17.12416748046875,-0.2441272735595703,-0.17713592946529388,0.7626320719718933
1790341558102698000,17.140697998046875,0.18902111053466797,-0.1683533787727356,-0.28211432695388794
1790341558119190800,17.157190673828126,0.2273731231689453,0.013527996838092804,0.25059324502944946
1790341558135704000,17.1737041015625,0.3400449752807617,0.02414659410715103,0.4824810028076172
1790341558152224500,17.190224609375,-0.8068170547485352,0.3420329988002777,0.3830716907978058
1790341558168712200,17.206712158203125,-0.8956260681152344,-0.049979791045188904,-0.9265527725219727
1790341558185168000,17.22316796875,0.8022575378417969,0.1337033361196518,0.6453695893287659
1790341558201661000,17.239660888671875,0.13904190063476562,0.192330002784729,-0.9369157552719116
1790341558218140400,17.256140380859375,-0.18665122985839844,0.5197280049324036,-0.09512406587600708
1790341558234591700,17.272591796875,-0.49774742126464844,-0.30943745374679565,0.7803479433059692
1790341558251079700,17.28907958984375,0.9984579086303711,0.8180325031280518,-0.8229554891586304
1790341558267580000,17.305579833984375,-0.004452705383300781,-0.43220412731170654,0.27611106634140015
1790341558284076000,17.322075927734375,0.28312015533447266,-0.06898541003465652,0.529413104057312
1790341558300590600,17.338590576171875,-0.217376708984375,0.06726551800966263,-0.31622064113616943
1790341558317038800,17.355038818359375,-0.5165376663208008,0.31741422414779663,0.48581555485725403
1790341558333560300,17.371560302734373,-0.9643373489379883,0.27320584654808044,-0.1519089937210083
1790341558350050000,17.388050048828124,-0.7414979934692383,-0.5440304279327393,0.0005398988723754883
1790341558366547200,17.404547119140624,0.9346227645874023,0.2831529378890991,-0.29974544048309326
1790341558383062300,17.421062255859376,0.032248497009277344,-0.5877346396446228,0.5313551425933838
1790341558399546000,17.437546142578125,0.0896463394165039,1.0472145080566406,-0.8443307876586914
1790341558416029200,17.454029296875,-0.7696123123168945,-1.1684069633483887,0.22814005613327026
1790341558432528600,17.470528564453126,1.4857597351074219,0.20140235126018524,-0.19182199239730835
1790341558449023700,17.487023681640625,0.18547916412353516,0.012129902839660645,0.8304377198219299
1790341558465539000,17.5035390625,0.4393186569213867,-0.7250645160675049,-0.3527877628803253
1790341558481992000,17.519991943359376,0.5398178100585938,0.27593061327934265,0.08676409721374512
1790341558498482700,17.536482666015626,-0.3030080795288086,-0.15276703238487244,0.01388007402420044
1790341558514997500,17.55299755859375,-0.20738601684570312,1.0806180238723755,-0.26344072818756104
1790341558531457800,17.569457763671874,-0.765045166015625,-0.16334207355976105,0.09454679489135742
1790341558547939800,17.58593994140625,0.3743419647216797,-0.21113154292106628,-0.8219436407089233
1790341558564395500,17.6023955078125,1.7871809005737305,0.9468200206756592,1.088431477546692
1790341558580880400,17.61888037109375,-0.24563121795654297,-0.25790077447891235,-0.2177695333957672
1790341558597404400,17.635404296875,-0.30083465576171875,0.47352153062820435,-0.4567064642906189
1790341558613897500,17.6518974609375,-0.6071462631225586,-0.5023443102836609,0.2995886504650116
1790341558630411300,17.668411376953124,0.503575325012207,0.7679685354232788,-0.7651046514511108
1790341558646931700,17.684931640625,-0.044704437255859375,-0.5229634046554565,-0.22619011998176575
1790341558663421000,17.7014208984375,1.071059226989746,0.29057952761650085,-0.12887915968894958
1790341558679849700,17.717849609375,0.020056724548339844,0.2738184928894043,-0.018990933895111084
1790341558696347100,17.73434716796875,-0.5308160781860352,0.33041584491729736,-0.1603832244873047
1790341558712829700,17.75082958984375,0.2880115509033203,0.61461341381073,0.45880064368247986
1790341558729284600,17.76728466796875,-0.4016094207763672,-0.6754579544067383,-0.9903372526168823
1790341558745778700,17.78377880859375,1.130784034729004,0.18673665821552277,-0.005636721849441528
1790341558762247000,17.800246826171875,0.5636587142944336,-0.26546213030815125,1.329512596130371
1790341558778686700,17.816686767578126,-0.6221704483032227,0.008617080748081207,-1.1462616920471191
1790341558795198000,17.833197998046874,-0.21262359619140625,-0.29317593574523926,0.21085941791534424
1790341558811683000,17.84968310546875,0.6086816787719727,-0.026501648128032684,0.2782500386238098
1790341558828171300,17.866171142578125,-0.0020799636840820312,0.08881795406341553,-0.3251003324985504
1790341558844684300,17.882684326171876,-0.7729997634887695,-0.6635550856590271,0.36512213945388794
1790341558861179000,17.899178955078124,-0.4666919708251953,0.7416450381278992,-0.2882098853588104
1790341558877697800,17.91569775390625,-1.1971912384033203,-0.6983029842376709,-0.25949186086654663
1790341558894188000,17.93218798828125,-0.24927711486816406,0.4302360713481903,-0.46722739934921265
1790341558910679000,17.948678955078126,-0.2824087142944336,-1.0532646179199219,0.6479333639144897
1790341558927184000,17.965183837890624,1.1297855377197266,-0.1283244788646698,-1.1834187507629395
1790341558943649000,17.98164892578125,0.6555461883544922,-0.5481312870979309,0.6035081148147583
1790341558960151300,17.9981513671875,0.32982921600341797,0.05596538633108139,0.44482311606407166
1790341558976604200,18.014604248046876,-1.1621665954589844,0.19645795226097107,-0.81332927942276
1790341558993098200,18.03109814453125,-0.7100181579589844,-0.19382140040397644,0.11299416422843933
1790341559009540000,18.0475400390625,0.022630691528320312,-0.3414391875267029,0.25570476055145264
1790341559026037000,18.064037109375,0.05584907531738281,-0.3890261948108673,-0.8322522640228271
1790341559042553300,18.08055322265625,0.022245407104492188,0.19478434324264526,0.7950079441070557
1790341559058980600,18.096980712890623,-0.4016094207763672,-0.12174367159605026,0.2796974778175354
1790341559075468000,18.113468017578125,-0.41898250579833984,0.04048125818371773,-1.8420791625976562
1790341559091971300,18.129971435546874,0.5888071060180664,-0.17414046823978424,0.5026284456253052
1790341559108438000,18.14643798828125,0.028594017028808594,-0.439553439617157,0.5087745785713196
1790341559124960300,18.162960205078125,-0.35972023010253906,-0.1289285570383072,-1.6282289028167725
1790341559141449500,18.179449462890624,0.3202781677246094,-0.020357053726911545,1.0835325717926025
1790341559157919700,18.195919677734373,-0.48431968688964844,-0.409348726272583,0.09082233905792236
1790341559174423300,18.21242333984375,-0.2068338394165039,-0.17312097549438477,-0.8950825929641724
1790341559190919200,18.228919189453126,0.236236572265625,-0.5565045475959778,0.45400166511535645
1790341559207437300,18.245437255859375,0.5330791473388672,-0.09176166355609894,0.2516390383243561
1790341559223923500,18.26192333984375,0.19064998626708984,0.22583183646202087,0.04748937487602234
1790341559240422700,18.278422607421874,-0.8342180252075195,-0.5071820616722107,0.12775346636772156
1790341559256928800,18.2949287109375,0.2957324981689453,-0.6261090636253357,0.4314939081668854
1790341559273427700,18.311427734375,0.9828195571899414,0.46537721157073975,-0.7651315927505493
1790341559289950000,18.327949951171874,-0.45622920989990234,-1.3142709732055664,0.11209681630134583
1790341559306442200,18.344442138671877,0.3889951705932617,0.13566485047340393,0.2802366614341736
1790341559322926300,18.36092626953125,-1.0214042663574219,-0.07754701375961304,-0.17321659624576569
1790341559339411500,18.377411376953123,-0.7606706619262695,-0.971190333366394,-0.2864709496498108
1790341559355890000,18.393889892578127,1.1958045959472656,-0.02718459814786911,0.41923266649246216
1790341559372334800,18.4103349609375,-8.198631286621094,-1.640554428100586,-0.406528115272522
1790341559388841700,18.426841796875,-0.7184505462646484,0.7958089113235474,-0.6679202318191528
1790341559405286400,18.443286376953125,1.9585819244384766,-1.6555793285369873,0.8327398300170898
1790341559421734000,18.45973388671875,1.7429351806640625,-1.1272562742233276,-0.8122014999389648
1790341559438177500,18.476177490234374,0.7875766754150391,-0.642473042011261,0.530422568321228
1790341559454621000,18.492620849609374,1.152853012084961,-0.7563634514808655,0.2895923852920532
1790341559471066400,18.50906640625,0.39401817321777344,-0.02549344301223755,0.7200289368629456
1790341559487515000,18.525514892578126,0.5844526290893555,-0.30387672781944275,0.391123503446579
1790341559503991300,18.5419912109375,-0.8432531356811523,-0.2604033052921295,-0.1935366541147232
1790341559520435700,18.558435791015626,-1.2562685012817383,-1.0165905952453613,0.512951135635376
1790341559536901600,18.574901611328126,0.3968639373779297,-0.3754287362098694,-1.2546643018722534
1790341559553377800,18.591377685546874,0.4972343444824219,-0.28325289487838745,-0.20039963722229004
1790341559569867000,18.607866943359376,-0.20386791229248047,-0.3550153076648712,0.5045163631439209
1790341559586353700,18.624353759765626,-0.9742965698242188,-0.03760403394699097,-0.46534425020217896
1790341559602800400,18.64080029296875,-0.1302165985107422,-0.7000628709793091,0.7251566648483276
1790341559619286800,18.657286865234376,0.3308382034301758,-1.192574143409729,-0.6925722360610962
1790341559635760000,18.673760009765626,0.5413389205932617,-0.1484014391899109,0.5711778402328491
1790341559652207400,18.690207275390627,-0.8783369064331055,-1.2093899250030518,-0.5427064895629883
1790341559668679200,18.70667919921875,0.12909889221191406,-0.4142354726791382,0.012986958026885986
1790341559685097500,18.723097412109375,0.2843189239501953,-1.3856936693191528,-0.4204994738101959
1790341559701545000,18.739544921875,0.0019464492797851562,-0.49103909730911255,0.43145591020584106
1790341559718018300,18.756018310546875,0.6873807907104492,0.08277931809425354,0.4483444392681122
1790341559734468400,18.77246826171875,-0.5547571182250977,-0.891774594783783,-0.36590373516082764
1790341559750941200,18.788941162109374,0.3297615051269531,0.02727481722831726,0.5762691497802734
1790341559767385000,18.805385009765626,-0.9478235244750977,-0.3087259829044342,0.011471599340438843
1790341559783868400,18.821868408203127,-0.5684986114501953,-0.15361598134040833,-0.22039666771888733
1790341559800358400,18.8383583984375,-0.4487171173095703,-0.2323443591594696,0.2935839295387268
1790341559816846800,18.854846923828124,0.4320993423461914,-0.8180848360061646,-0.8358100652694702
1790341559833342000,18.871342041015627,1.3888683319091797,-0.06233444809913635,0.7181957960128784
1790341559849835800,18.887835693359374,-0.44927310943603516,-0.43329161405563354,-0.4321923553943634
1790341559866351600,18.9043515625,-0.3073549270629883,-0.03220468759536743,-0.15388956665992737
1790341559882837000,18.9208369140625,-0.6580419540405273,-0.857772707939148,0.3937756419181824
1790341559899334700,18.937334716796876,1.2270469665527344,0.20981523394584656,-1.3807599544525146
1790341559915843300,18.95384326171875,0.16274642944335938,-0.44780057668685913,0.21327269077301025
1790341559932348200,18.97034814453125,-0.79443359375,0.06582564115524292,-0.72807776927948
1790341559948835600,18.986835693359374,-0.44632720947265625,-0.7971602082252502,0.12400832772254944
1790341559965324800,19.00332470703125,1.7856950759887695,-0.7112326622009277,-0.431475430727005
1790341559981797000,19.019797119140627,1.5692424774169922,0.11351889371871948,0.33499449491500854
1790341559998247400,19.036247314453124,0.11834144592285156,-0.31728488206863403,0.08646227419376373
1790341560014697000,19.052697021484374,-0.7979469299316406,0.3693249225616455,-0.051138341426849365
1790341560031167500,19.06916748046875,-1.9427103996276855,-0.09178417921066284,-0.3836941719055176
1790341560047608800,19.08560888671875,0.24213123321533203,0.851302981376648,-0.03283478319644928
1790341560063968800,19.10196875,0.38712215423583984,-0.534389317035675,-0.5085644125938416
1790341560080445000,19.11844482421875,1.093979835510254,-0.9597330689430237,0.2727496922016144
1790341560096928000,19.134927978515623,1.3328514099121094,-0.1567549705505371,-0.08150888979434967
1790341560113376000,19.1513759765625,0.03176116943359375,-0.5515901446342468,-0.1952652931213379
1790341560129914000,19.1679140625,0.11311626434326172,0.19816717505455017,0.2989675998687744
1790341560146406700,19.18440673828125,-0.8845386505126953,-0.9157112836837769,-0.535618782043457
1790341560162911500,19.200911376953126,0.9671211242675781,-0.07957768440246582,0.6634588241577148
1790341560179409000,19.217408935546874,-0.6241540908813477,-0.20687884092330933,-0.14664790034294128
1790341560195926500,19.233926513671875,-0.15712356567382812,0.07925498485565186,-0.30270916223526
1790341560212418300,19.250418212890626,0.40572547912597656,-0.26667100191116333,-0.22686423361301422
1790341560228915500,19.26691552734375,0.07318592071533203,-0.7796069979667664,0.06458812952041626
1790341560245420800,19.2834208984375,0.6630783081054688,0.8046470880508423,0.1951645165681839
1790341560261918000,19.29991796875,-0.6745901107788086,-0.9643308520317078,0.4028002619743347
1790341560278435800,19.316435791015625,0.4750499725341797,-0.003454267978668213,-0.4294397532939911
1790341560294925300,19.33292529296875,-0.44614315032958984,0.12655359506607056,-0.17425723373889923
1790341560311414500,19.34941455078125,-0.5297622680664062,0.060459911823272705,0.4514935612678528
1790341560327943200,19.365943115234376,-0.17990684509277344,0.13265317678451538,-0.8606670498847961
1790341560344438000,19.38243798828125,-0.33516407012939453,-0.21320301294326782,0.20822149515151978
1790341560360888600,19.398888671875,-0.002071380615234375,0.1410231590270996,0.040899857878685
1790341560377406500,19.415406494140626,-0.11426258087158203,-0.2344799041748047,-0.07087740302085876
1790341560393895000,19.43189501953125,-0.18579673767089844,-0.4456629753112793,-0.3426564633846283
1790341560410396000,19.44839599609375,0.8082847595214844,0.32009613513946533,0.11513379216194153
1790341560426892500,19.464892578125,0.648193359375,0.010937392711639404,0.40481293201446533
1790341560443406800,19.48140673828125,0.25099945068359375,-0.13133329153060913,-0.6204250454902649
1790341560459895000,19.49789501953125,0.09809112548828125,-0.1938456892967224,0.6884233951568604
1790341560476390400,19.514390380859375,1.2022581100463867,0.46095073223114014,-0.41942280530929565
1790341560492893400,19.5308935546875,-0.38447093963623047,-0.9550867676734924,0.06594353914260864
1790341560509390800,19.547390869140624,-0.6355810165405273,-0.8457139134407043,-0.5083824396133423
1790341560525875500,19.56387548828125,-0.14912891387939453,-0.42338621616363525,0.24921390414237976
1790341560542366700,19.58036669921875,-0.1201486587524414,-1.0186799764633179,0.10797116905450821
1790341560558831400,19.596831298828125,0.754033088684082,-0.4687865376472473,-0.4251742362976074
1790341560575361500,19.613361572265624,0.10069561004638672,-0.09880012273788452,0.5658600330352783
1790341560591859200,19.629859130859376,-0.5143318176269531,-0.08554607629776001,-1.1354578733444214
1790341560608373800,19.646373779296876,-0.6022434234619141,-0.3023238182067871,-0.4034034311771393
1790341560624909300,19.662909423828125,-0.12803173065185547,-0.14480388164520264,0.3169824779033661
1790341560641397000,19.67939697265625,0.5856800079345703,0.32224851846694946,-0.7785855531692505
1790341560657898800,19.695898681640625,0.04696083068847656,-0.2387559413909912,0.09431187808513641
1790341560674396000,19.71239599609375,-0.09425830841064453,0.05837607383728027,-0.01607566699385643
1790341560690876200,19.728876220703125,0.34648799896240234,0.4602445065975189,-0.1384769231081009
1790341560707315500,19.7453154296875,-0.0940399169921875,-0.04283219575881958,-0.16200824081897736
1790341560723816700,19.761816650390625,-0.11799335479736328,-0.03408306837081909,-0.5482658743858337
1790341560740323800,19.77832373046875,-0.0073261260986328125,0.4457077980041504,0.1905955672264099
1790341560756826000,19.794826171875,-0.45006847381591797,-0.735430896282196,-0.4302215576171875
1790341560773337900,19.811337890625,0.7209243774414062,0.24365007877349854,-0.2910776436328888
1790341560789828000,19.827828125,-0.35871124267578125,-0.4467902183532715,0.6623199582099915
1790341560806317300,19.8443173828125,0.6591644287109375,-0.12291848659515381,-0.9639853239059448
1790341560822844400,19.860844482421875,0.36234378814697266,0.12898045778274536,0.33069100975990295
1790341560839338200,19.877338134765626,-0.3557119369506836,0.004407286643981934,0.1378486007452011
1790341560855855000,19.893855224609375,0.4871044158935547,0.18680036067962646,-0.23368951678276062
1790341560872340000,19.910340087890624,0.7215566635131836,0.5219480991363525,-0.4133719503879547
1790341560888803800,19.926803955078125,0.08450984954833984,0.14358937740325928,0.75633704662323
1790341560905302800,19.943302734375,0.41988086700439453,0.2820167541503906,0.04233904182910919
1790341560921764400,19.959764404296877,0.19257259368896484,-0.33714354038238525,-0.5651453137397766
1790341560938281000,19.976281005859374,0.2237234115600586,-0.0016748309135437012,0.5364565849304199
1790341560954772000,19.99277197265625,0.1997661590576172,-0.42335474491119385,0.05844776704907417
1790341560971268400,20.009268310546876,-0.015804290771484375,-0.07295823097229004,-0.4962993264198303
1790341560987771100,20.025771240234373,0.32893943786621094,-0.15454363822937012,0.6786863803863525
1790341561004267800,20.042267822265625,0.046883583068847656,-0.09479731321334839,-0.26142895221710205
1790341561020752600,20.058752685546875,-0.3384370803833008,-0.005358695983886719,-0.6842232942581177
1790341561037147600,20.075147705078123,-0.8887138366699219,-0.27870750427246094,0.4307224750518799
1790341561053638700,20.091638671875,-0.06984710693359375,-0.3284211754798889,-0.4932466447353363
1790341561070116900,20.108116943359374,0.5001688003540039,0.4346102774143219,-0.4270092248916626
1790341561086613200,20.12461328125,-0.533686637878418,-0.7508354783058167,0.23334549367427826
1790341561102101200,20.140101318359374,1.2526483535766602,0.45608532428741455,-0.19988974928855896
1790341561118523100,20.156523193359376,0.18250560760498047,0.09717166423797607,0.39700496196746826
1790341561134978600,20.172978515625,0.015049934387207031,-0.263957142829895,-0.41968247294425964
1790341561151478000,20.18947802734375,0.21642398834228516,0.5020314455032349,0.00848330557346344
1790341561167938300,20.205938232421875,-0.3316307067871094,-0.4061657786369324,-0.2810519337654114
1790341561184452400,20.222452392578123,0.28656482696533203,0.4008418917655945,-0.18846741318702698
1790341561200938500,20.2389384765625,-0.6177988052368164,-0.7366818785667419,0.2405010163784027
1790341561217431000,20.25543115234375,0.9028396606445312,0.18131041526794434,-0.41895467042922974
1790341561233934600,20.2719345703125,0.2133922576904297,-0.23188060522079468,0.7921886444091797
1790341561250397200,20.288397216796874,0.39084911346435547,0.06019389629364014,-0.15145975351333618
1790341561266909200,20.3049091796875,-0.30085086822509766,-0.43867701292037964,-0.03628361225128174
1790341561283400400,20.321400390625,0.18785381317138672,0.19655513763427734,0.3042408227920532
1790341561299886600,20.337886474609373,0.12097549438476562,0.33635979890823364,-0.3141777515411377
1790341561316376300,20.354376220703124,-0.4493532180786133,-0.20863181352615356,-0.28074347972869873
1790341561332867300,20.370867431640626,0.9220027923583984,0.7668916583061218,0.6320382356643677
1790341561349379800,20.3873798828125,-0.01319122314453125,0.11481833457946777,-0.3681187629699707
1790341561365831700,20.403831787109375,0.2073497772216797,0.7197653651237488,-0.33910393714904785
1790341561382260500,20.420260498046876,-0.13747310638427734,0.5988451838493347,0.6120010614395142
1790341561398757600,20.436757568359376,0.02253246307373047,0.06209111213684082,-0.16797688603401184
1790341561415229400,20.4532294921875,0.4753580093383789,0.8089190721511841,-0.07149501144886017
