time,seconds_elapsed,z,y,x
1790341541101071000,0.139071044921875,0.19058994948863983,-0.1918116807937622,-0.21563543379306793
1790341541117539800,0.155539794921875,0.18448130786418915,-0.2015855312347412,-0.15454891324043274
1790341541134009300,0.17200927734375,0.1716531366109848,-0.16249015927314758,-0.12461651116609573
1790341541150503000,0.1885029296875,0.13988813757896423,-0.030543262138962746,-0.08002334833145142
1790341541166972200,0.20497216796875,0.1014036312699318,0.182648703455925,0.004886921960860491
1790341541183443200,0.221443115234375,0.06414084881544113,0.23457226157188416,0.06719517707824707
1790341541199942100,0.237942138671875,-0.0012217304902151227,0.2785545587539673,0.16310101747512817
1790341541216413700,0.25441357421875,-0.025656340643763542,0.24617868661880493,0.22846360504627228
1790341541232913400,0.270913330078125,0.010995574295520782,0.15577064454555511,0.2583959996700287
1790341541249385000,0.287385009765625,0.08002334833145142,0.054367005825042725,0.23640485107898712
1790341541265780500,0.303780517578125,0.12095131725072861,0.022602014243602753,0.17959438264369965
1790341541282278700,0.320278564453125,0.1466076523065567,-0.0403171069920063,0.06963863968849182
1790341541298744300,0.336744384765625,0.12889257073402405,-0.12095131725072861,-0.030543262138962746
1790341541315183400,0.353183349609375,0.08552113175392151,-0.17348572611808777,-0.07330382615327835
1790341541331646700,0.369646728515625,0.06719517707824707,-0.15760323405265808,-0.024434609338641167
1790341541348109800,0.38610986328125,0.08185594528913498,-0.10384709388017654,0.021991148591041565
1790341541364627700,0.402627685546875,0.13439035415649414,-0.06719517707824707,0.06352998316287994
1790341541381088800,0.4190888671875,0.22113321721553802,-0.04337143152952194,0.0757472887635231
1790341541397578800,0.435578857421875,0.29138273000717163,0.009162978269159794,0.06780604273080826
1790341541414012200,0.45201220703125,0.32986724376678467,0.03848451003432274,0.039095375686883926
1790341541430441500,0.46844140625,0.2974913716316223,-0.012828170321881771,0.0012217304902151227
1790341541446928000,0.484927978515625,0.23457226157188416,-0.036651913076639175,-0.03420845419168472
1790341541463389400,0.501389404296875,0.17898350954055786,-0.09651670604944229,-0.05497787147760391
1790341541479876600,0.517876708984375,0.13377949595451355,-0.14844025671482086,-0.051312681287527084
1790341541496337400,0.53433740234375,0.09773843735456467,-0.03298672288656235,-0.05619960278272629
1790341541512816000,0.550816162109375,0.11239920556545258,-0.006108652334660292,-0.06414084881544113
1790341541529302500,0.567302490234375,0.16065755486488342,-0.02076941914856434,-0.06352998316287994
1790341541545764000,0.58376416015625,0.2370157092809677,-0.04764748737215996,-0.05497787147760391
1790341541562283000,0.600282958984375,0.34758231043815613,-0.0806342139840126,-0.04092797264456749
1790341541578743600,0.61674365234375,0.4508185386657715,-0.1160643994808197,-0.04764748737215996
1790341541595207200,0.633207275390625,0.47342056035995483,-0.1466076523065567,-0.05314527451992035
1790341541611725800,0.649725830078125,0.4715879559516907,-0.18570303916931152,-0.05925392732024193
1790341541628186400,0.666186279296875,0.44837507605552673,-0.22907446324825287,-0.05619960278272629
1790341541644675800,0.68267578125,0.455705463886261,-0.16371189057826996,-0.02626720629632473
1790341541661134000,0.699134033203125,0.45814892649650574,-0.00733038317412138,-0.04337143152952194
1790341541677592600,0.715592529296875,0.42699480056762695,0.08674286305904388,-0.0708603709936142
1790341541694087000,0.7320869140625,0.384845107793808,0.13072516024112701,-0.17898350954055786
1790341541710547700,0.748547607421875,0.38728857040405273,0.11301007121801376,-0.25473082065582275
1790341541727008000,0.765008056640625,0.4153883755207062,0.12461651116609573,-0.2840523421764374
1790341541743466800,0.781466796875,0.4337143301963806,0.23396138846874237,-0.17837265133857727
1790341541759990300,0.797990234375,0.43799036741256714,0.33169981837272644,-0.06780604273080826
1790341541776482600,0.814482666015625,0.4141666293144226,0.44837507605552673,0.07819075137376785
1790341541792943000,0.830943115234375,0.34147366881370544,0.41661009192466736,0.17409659922122955
1790341541809379800,0.8473798828125,0.24495697021484375,0.2926044464111328,0.21868975460529327
1790341541825839600,0.863839599609375,0.1411098688840866,0.10445795953273773,0.27000242471694946
1790341541842298600,0.880298583984375,0.09651670604944229,0.05192354694008827,0.28955012559890747
1790341541858811000,0.896810791015625,0.07391469180583954,0.06658431142568588,0.26633724570274353
1790341541875266800,0.913266845703125,0.10690141469240189,0.1062905490398407,0.16432274878025055
1790341541891755300,0.92975537109375,0.16493362188339233,0.10690141469240189,0.04092797264456749
1790341541908217300,0.94621728515625,0.21502456068992615,0.012828170321881771,-0.042760565876960754
1790341541924682500,0.9626826171875,0.2272418737411499,-0.009162978269159794,-0.00366519158706069
1790341541941173500,0.979173583984375,0.2321287989616394,0.06536258012056351,0.08002334833145142
1790341541957635300,0.99563525390625,0.2064724564552307,0.1973094791173935,0.24617868661880493
1790341541974098700,1.0120986328125,0.11911872029304504,0.28955012559890747,0.3677408695220947
1790341541990559000,1.02855908203125,0.01771509274840355,0.22479841113090515,0.31459560990333557
1790341542007041300,1.045041259765625,-0.02321287989616394,0.12828169763088226,0.21319197118282318
1790341542023531300,1.06153125,-0.0708603709936142,-0.025045474991202354,0.06963863968849182
1790341542039994000,1.077994140625,-0.0757472887635231,-0.07635815441608429,-0.04337143152952194
1790341542056480300,1.094480224609375,-0.045204028487205505,-0.06230825558304787,-0.07391469180583954
1790341542072924000,1.110923828125,-0.009773843921720982,0.015882495790719986,-0.036041051149368286
1790341542089391000,1.12739111328125,0.01466076634824276,0.06902777403593063,0
1790341542105922600,1.143922607421875,0.059864792972803116,0.06169738993048668,0.036651913076639175
1790341542122426400,1.16042626953125,0.05253441259264946,0.056810468435287476,0.036041051149368286
1790341542138876200,1.176876220703125,-0.01160643994808197,0.028099801391363144,0.007941247895359993
1790341542155383000,1.193383056640625,-0.09957103431224823,0.07635815441608429,0.004886921960860491
1790341542171842000,1.209842041015625,-0.11178833991289139,0.0959058403968811,0.024434609338641167
1790341542188301800,1.2263017578125,-0.07757988572120667,0.1368338167667389,0.08491026610136032
1790341542204759600,1.242759521484375,-0.015882495790719986,0.13011430203914642,0.11850785464048386
1790341542221217500,1.259217529296875,0.015271631069481373,0.09712757170200348,0.10201449692249298
1790341542237734700,1.275734619140625,-0.015882495790719986,-0.031154127791523933,-0.02015855349600315
1790341542254234600,1.292234619140625,-0.05253441259264946,-0.11239920556545258,-0.10934487730264664
1790341542270690300,1.308690185546875,-0.06108652427792549,-0.1918116807937622,-0.21074850857257843
1790341542287147500,1.3251474609375,-0.02932153269648552,-0.19914206862449646,-0.2791654169559479
1790341542303626200,1.341626220703125,0.039095375686883926,-0.1875356286764145,-0.30115658044815063
1790341542320079600,1.35807958984375,0.1215621829032898,-0.04459316283464432,-0.18875735998153687
1790341542336534300,1.3745341796875,0.1411098688840866,0.030543262138962746,-0.09224065393209457
1790341542353017300,1.391017333984375,0.11972958594560623,0.06963863968849182,0.0006108652451075613
1790341542369502200,1.407502197265625,0.06841690838336945,0.02382374368607998,0.01466076634824276
1790341542385981200,1.423981201171875,0.024434609338641167,-0.019547687843441963,-0.030543262138962746
1790341542402489600,1.440489501953125,0.01466076634824276,0.019547687843441963,-0.09957103431224823
1790341542418945000,1.456945068359375,0.04153883829712868,0.0659734457731247,-0.1270599663257599
1790341542435478800,1.473478759765625,0.0708603709936142,0.11972958594560623,-0.11850785464048386
1790341542451933000,1.489932861328125,0.0708603709936142,0.07880161702632904,-0.08429940044879913
1790341542468432400,1.506432373046875,0.05253441259264946,-0.02321287989616394,-0.04764748737215996
1790341542484939500,1.522939453125,0.031154127791523933,-0.11728613078594208,-0.03237585723400116
1790341542501396500,1.539396484375,0.021380282938480377,-0.09957103431224823,-0.04214970022439957
1790341542517882400,1.55588232421875,0.00733038317412138,-0.054367005825042725,-0.05375614017248154
1790341542534384600,1.572384521484375,-0.025045474991202354,-0.027488935738801956,-0.08368854224681854
1790341542550888000,1.588887939453125,-0.05009094998240471,-0.05619960278272629,-0.12339477986097336
1790341542567344000,1.60534423828125,-0.054367005825042725,-0.08491026610136032,-0.11301007121801376
1790341542583831800,1.621831787109375,-0.03298672288656235,-0.05253441259264946,-0.06414084881544113
1790341542600361700,1.63836181640625,-0.0012217304902151227,-0.0354301854968071,0.019547687843441963
1790341542616867800,1.654867919921875,-0.0012217304902151227,-0.025045474991202354,0.10323622822761536
1790341542633354500,1.6713544921875,-0.00733038317412138,-0.04886921867728233,0.12400564551353455
1790341542649808100,1.68780810546875,-0.03787364438176155,-0.010995574295520782,0.08857546001672745
1790341542666305500,1.704305419921875,-0.06719517707824707,0.05009094998240471,0.06475171446800232
1790341542682761200,1.72076123046875,-0.09346238523721695,0.09651670604944229,0.04703662544488907
1790341542699212300,1.73721240234375,-0.10873401165008545,0.10567969083786011,0.07208210229873657
1790341542715667200,1.753667236328125,-0.11056660860776901,0.0861319974064827,0.1270599663257599
1790341542732123100,1.770123046875,-0.09224065393209457,0.04459316283464432,0.16737708449363708
1790341542748580400,1.786580322265625,-0.08429940044879913,0.022602014243602753,0.16004669666290283
1790341542764977400,1.802977294921875,-0.05314527451992035,-0.028099801391363144,0.10934487730264664
1790341542781461200,1.819461181640625,-0.00733038317412138,-0.05192354694008827,0.02871066704392433
1790341542798008000,1.836008056640625,0.03848451003432274,-0.05803219974040985,-0.04459316283464432
1790341542814494000,1.852493896484375,0.08124507963657379,-0.03298672288656235,-0.08002334833145142
1790341542830952700,1.86895263671875,0.08796459436416626,-0.019547687843441963,-0.0757472887635231
1790341542847467300,1.88546728515625,0.09040805697441101,-0.04092797264456749,-0.04886921867728233
1790341542863924000,1.901924072265625,0.0910189226269722,-0.06291911751031876,-0.04581489413976669
1790341542880414000,1.9184140625,0.10873401165008545,-0.06902777403593063,-0.06658431142568588
1790341542896872400,1.93487255859375,0.14049901068210602,-0.06230825558304787,-0.16493362188339233
1790341542913331700,1.951331787109375,0.15027284622192383,-0.05314527451992035,-0.2321287989616394
1790341542929819600,1.967819580078125,0.1569923609495163,-0.04153883829712868,-0.32559117674827576
1790341542946276600,1.984276611328125,0.1618792861700058,-0.01710422709584236,-0.43249258399009705
1790341542962766300,2.000766357421875,0.14538592100143433,0.1264491081237793,-0.45814892649650574
1790341542979220200,2.01722021484375,0.13866640627384186,0.2724458873271942,-0.45204028487205505
1790341542995699700,2.03369970703125,0.19608774781227112,0.27611109614372253,-0.4453207552433014
1790341543012155600,2.05015576171875,0.30970868468284607,0.24617868661880493,-0.4288274049758911
1790341543028612600,2.066612548828125,0.45814892649650574,0.14233160018920898,-0.44226643443107605
1790341543044967000,2.082966796875,0.6188064813613892,-0.01466076634824276,-0.46547931432724
1790341543061380900,2.099380859375,0.740368664264679,-0.16371189057826996,-0.35552358627319336
1790341543077839000,2.115839111328125,0.7525860071182251,-0.18509216606616974,-0.21441370248794556
1790341543094326800,2.132326904296875,0.7006624341011047,-0.17104226350784302,0.06352998316287994
1790341543110760200,2.14876025390625,0.588263213634491,-0.2021963894367218,0.22846360504627228
1790341543127049700,2.1650498046875,0.4599815309047699,-0.21502456068992615,0.20463985204696655
1790341543143505700,2.181505615234375,0.2724458873271942,-0.10873401165008545,0.0012217304902151227
1790341543159962600,2.197962646484375,0.1313360333442688,0.007941247895359993,-0.17348572611808777
1790341543176446500,2.214446533203125,-0.03787364438176155,0.10323622822761536,-0.42149701714515686
1790341543192901600,2.230901611328125,-0.22418753802776337,0.07757988572120667,-0.740368664264679
1790341543209360400,2.2473603515625,-0.38606682419776917,0.04886921867728233,-0.9663888216018677
1790341543225815600,2.263815673828125,-0.5296201705932617,0.025656340643763542,-0.9101892113685608
1790341543242297600,2.280297607421875,-0.5876523852348328,-0.04459316283464432,-0.7336491346359253
1790341543258754600,2.296754638671875,-0.6029239892959595,-0.1319468915462494,-0.48808133602142334
1790341543275208200,2.313208251953125,-0.5406157374382019,-0.2932153046131134,-0.3396410644054413
1790341543291606300,2.329606201171875,-0.4178318381309509,-0.46242499351501465,-0.3390302062034607
1790341543308059400,2.346059326171875,-0.1569923609495163,-0.5864306092262268,-0.38240164518356323
1790341543324514800,2.362514892578125,-0.01466076634824276,-0.4086688458919525,-0.24923302233219147
1790341543340997400,2.378997314453125,0.0659734457731247,-0.0861319974064827,0.13866640627384186
1790341543357451500,2.395451416015625,0.0806342139840126,-0.01038470957428217,0.46547931432724
1790341543373909000,2.411908935546875,0.09712757170200348,-0.22479841113090515,0.5442809462547302
1790341543390366000,2.428365966796875,0.10323622822761536,-0.6120869517326355,0.32559117674827576
1790341543406823700,2.44482373046875,0.06658431142568588,-0.7971791625022888,0.031154127791523933
1790341543423312000,2.461311767578125,-0.05497787147760391,-0.769690215587616,-0.3982841372489929
1790341543439766800,2.477766845703125,-0.19058994948863983,-0.4801400899887085,-0.7922922372817993
1790341543456190000,2.49418994140625,-0.2565633952617645,-0.10934487730264664,-0.998153805732727
1790341543472610800,2.51061083984375,-0.2889392673969269,0.027488935738801956,-0.9761626720428467
1790341543489087500,2.52708740234375,-0.2871066629886627,0.03298672288656235,-0.9077457785606384
1790341543505621500,2.54362158203125,-0.25534167885780334,0.04703662544488907,-0.826500654220581
1790341543522072800,2.56007275390625,-0.16371189057826996,0.051312681287527084,-0.6646214127540588
1790341543538577000,2.576576904296875,-0.019547687843441963,0.04886921867728233,-0.45692721009254456
1790341543555031000,2.593031005859375,0.18448130786418915,0.059864792972803116,-0.26145032048225403
1790341543571488500,2.609488525390625,0.2877175211906433,0.07696902006864548,-0.22846360504627228
1790341543587971000,2.62597119140625,0.3695734739303589,0.1215621829032898,-0.2168571650981903
1790341543604429000,2.642428955078125,0.43737950921058655,0.2681698501110077,-0.14538592100143433
1790341543620888800,2.658888916015625,0.45204028487205505,0.5815436840057373,0.08674286305904388
1790341543637346800,2.675346923828125,-0.18570303916931152,1.2162326574325562,0.5076290369033813
1790341543653806800,2.691806884765625,-0.5992587804794312,1.103833556175232,0.6511823534965515
1790341543670265600,2.708265625,-0.9669997096061707,1.160033106803894,0.7904596328735352
1790341543686723800,2.724723876953125,-1.149037480354309,0.7336491346359253,0.8912523984909058
1790341543703212300,2.74121240234375,-0.9566149711608887,-0.028099801391363144,0.9651671051979065
1790341543719664600,2.75766455078125,-0.38117989897727966,-0.9553932547569275,0.9578366875648499
1790341543736050200,2.77405029296875,-0.00366519158706069,-1.3066407442092896,0.9431759119033813
1790341543752501800,2.790501708984375,0.4911356568336487,-1.3964380025863647,0.8686503767967224
1790341543768953300,2.806953369140625,0.8087855577468872,-1.5717562437057495,0.7965682744979858
1790341543785365800,2.82336572265625,0.9437867999076843,-1.5125023126602173,0.8136724829673767
1790341543801818600,2.839818603515625,0.8704829812049866,-1.0848966836929321,0.646906316280365
1790341543818272000,2.85627197265625,0.7232644557952881,-0.5925393104553223,0.46364670991897583
1790341543834784300,2.8727841796875,0.5186246037483215,0.16432274878025055,0.04764748737215996
1790341543851238400,2.88923828125,0.252287358045578,0.5290092825889587,-0.5051855444908142
1790341543867698700,2.90569873046875,-0.059864792972803116,0.5534439086914062,-0.9382890462875366
1790341543884155600,2.92215576171875,-0.16920967400074005,0.8637634515762329,-1.064738154411316
1790341543900614000,2.93861376953125,-0.05375614017248154,0.9456194043159485,-1.056796908378601
1790341543917069300,2.9550693359375,0.09468411654233932,0.8100073337554932,-1.0317513942718506
1790341543933525200,2.971525146484375,0.08857546001672745,0.34758231043815613,-0.9376781582832336
1790341543949980000,2.98797998046875,0.06169738993048668,0.35735616087913513,-0.7745771408081055
1790341543966430000,3.004429931640625,-0.02015855349600315,0.485027015209198,-0.39156460762023926
1790341543982908700,3.02090869140625,-0.029932396486401558,0.35674530267715454,-0.15454891324043274
1790341543999362300,3.0373623046875,-0.019547687843441963,0.08491026610136032,0.06291911751031876
1790341544015812400,3.053812255859375,0.02076941914856434,0.10262536257505417,0.08307767659425735
1790341544032318500,3.070318359375,0.0006108652451075613,0.24373523890972137,-0.00427605677396059
1790341544048770000,3.08677001953125,-0.09040805697441101,0.2174680233001709,-0.1362229436635971
1790341544065186600,3.1031865234375,-0.1466076523065567,0.03481931984424591,-0.20402899384498596
1790341544081698800,3.11969873046875,-0.14416420459747314,-0.37201693654060364,-0.24556782841682434
1790341544098150700,3.136150634765625,-0.015882495790719986,-0.9633345007896423,-0.25961771607398987
1790341544114603000,3.15260302734375,0.1667662113904953,-1.803274154663086,-0.4001167416572571
1790341544131053800,3.1690537109375,0.45265114307403564,-2.006692409515381,-0.6475171446800232
1790341544147435500,3.185435546875,0.503963828086853,-1.9645426273345947,-0.7299839854240417
1790341544163920400,3.20192041015625,0.4758640229701996,-1.8979582786560059,-0.7067710757255554
1790341544180369400,3.218369384765625,0.4141666293144226,-1.8881844282150269,-0.5216789245605469
1790341544196852500,3.2348525390625,0.42149701714515686,-1.5045610666275024,-0.3836233615875244
1790341544213298700,3.251298583984375,0.4129449129104614,-1.0225883722305298,-0.36102136969566345
1790341544229773800,3.26777392578125,0.40683624148368835,-0.7122688889503479,-0.47769662737846375
1790341544246256600,3.284256591796875,0.3982841372489929,-0.30482175946235657,-0.7434229850769043
1790341544262709500,3.30070947265625,0.3543018400669098,-0.06230825558304787,-1.0115928649902344
1790341544279087400,3.31708740234375,0.31031954288482666,0.06719517707824707,-1.2919800281524658
1790341544295538000,3.333537841796875,0.2932153046131134,0.3219259977340698,-1.6297885179519653
1790341544311988000,3.349988037109375,0.26145032048225403,0.5962044596672058,-1.8112154006958008
1790341544328501800,3.366501708984375,0.16004669666290283,1.0677924156188965,-2.0897700786590576
1790341544344955100,3.382955078125,0.03237585723400116,1.2205088138580322,-2.193617105484009
1790341544361443800,3.39944384765625,-0.08429940044879913,1.2718214988708496,-2.102598190307617
1790341544377899500,3.4158994140625,-0.07635815441608429,0.9529497623443604,-2.085494041442871
1790341544394358800,3.43235888671875,0.005497787147760391,0.7580837607383728,-2.096489429473877
1790341544410845000,3.448844970703125,0.12950342893600464,0.14844025671482086,-2.065335512161255
1790341544427296300,3.465296142578125,0.16982053220272064,-0.004886921960860491,-2.040900707244873
1790341544443750000,3.48175,0.13866640627384186,0.21135938167572021,-2.015244483947754
1790341544460201500,3.498201416015625,0.11850785464048386,0.39217549562454224,-1.9523253440856934
1790341544476653000,3.514653076171875,0.13439035415649414,0.38179078698158264,-1.8698585033416748
1790341544493106200,3.531106201171875,0.16554448008537292,0.26022860407829285,-1.7214182615280151
1790341544509606400,3.5476064453125,0.1814269721508026,0.009162978269159794,-1.6187928915023804
1790341544526121500,3.56412158203125,0.22357667982578278,-0.20952677726745605,-1.5308283567428589
1790341544542572800,3.58057275390625,0.23640485107898712,-0.3695734739303589,-1.3732250928878784
1790341544559024000,3.597024169921875,0.1918116807937622,-0.3384193480014801,-1.2705997228622437
1790341544575537400,3.613537353515625,0.12400564551353455,-0.19547687470912933,-1.112385630607605
1790341544591989200,3.6299892578125,0.10812314599752426,-0.07819075137376785,-0.9627236127853394
1790341544608474000,3.64647412109375,0.11056660860776901,0.07208210229873657,-0.8417723178863525
1790341544624925700,3.66292578125,0.10690141469240189,0.28649580478668213,-0.6627888083457947
1790341544641378300,3.67937841796875,0.1111774742603302,0.4196644127368927,-0.5687155723571777
1790341544657827600,3.69582763671875,0.12095131725072861,0.588263213634491,-0.47280970215797424
1790341544674276600,3.712276611328125,0.10567969083786011,0.6817256212234497,-0.4349360466003418
1790341544690760000,3.728760009765625,0.08185594528913498,0.6921103000640869,-0.38179078698158264
1790341544707212500,3.745212646484375,0.06352998316287994,0.7012733221054077,-0.3597996234893799
1790341544723689000,3.76168896484375,0.029932396486401558,0.6762278079986572,-0.37140607833862305
1790341544740139500,3.778139404296875,-0.05925392732024193,0.6279694437980652,-0.41233405470848083
1790341544756590000,3.794590087890625,-0.182648703455925,0.5638286471366882,-0.46364670991897583
1790341544772980700,3.810980712890625,-0.3139847218990326,0.43737950921058655,-0.49296826124191284
1790341544789429500,3.827429443359375,-0.3793473243713379,0.24373523890972137,-0.5711590051651001
1790341544805881900,3.8438818359375,-0.35246923565864563,0.1459967941045761,-0.543059229850769
1790341544822370300,3.860370361328125,-0.27550023794174194,-0.015882495790719986,-0.4807509481906891
1790341544838786800,3.876786865234375,0.5962044596672058,1.4917329549789429,1.3322970867156982
1790341544855240200,3.893240234375,0.004886921960860491,0.5467243790626526,0.8112290501594543
1790341544871693800,3.90969384765625,0.4098905920982361,0.6120869517326355,1.0971139669418335
1790341544888146700,3.926146728515625,0.3597996234893799,0.6530149579048157,1.1630873680114746
1790341544904597000,3.942596923828125,0.32620203495025635,0.6896668672561646,1.2724323272705078
1790341544921046000,3.9590458984375,0.31459560990333557,0.6719517707824707,1.2596040964126587
1790341544937530600,3.975530517578125,0.2577851414680481,0.607200026512146,1.2870930433273315
1790341544953981400,3.9919814453125,0.15027284622192383,0.4184426963329315,1.1349875926971436
1790341544970455300,4.008455322265625,0.14782938361167908,0.21868975460529327,1.026253581047058
1790341544986938600,4.024938720703125,0.006108652334660292,0.02015855349600315,0.7513642311096191
1790341545003389000,4.041388916015625,0.01038470957428217,-0.10384709388017654,0.44287729263305664
1790341545019902700,4.05790283203125,0.059864792972803116,-0.15943582355976105,0.2730567753314972
1790341545036349700,4.074349609375,0.09957103431224823,-0.2785545587539673,0.1966986060142517
1790341545052798500,4.090798583984375,0.11911872029304504,-0.35246923565864563,0.0910189226269722
1790341545069274600,4.107274658203125,0.0012217304902151227,-0.49357911944389343,-0.09773843735456467
1790341545085723100,4.12372314453125,-0.08429940044879913,-0.48808133602142334,-0.18631389737129211
1790341545102205200,4.140205078125,-0.11972958594560623,-0.484416127204895,-0.13255776464939117
1790341545118724900,4.156724853515625,-0.26450464129447937,-0.3274237811565399,0.46670106053352356
1790341545135097300,4.173097412109375,-0.3176499307155609,-0.1508837193250656,0.7452555894851685
1790341545151543800,4.189543701171875,-0.33292156457901,0.02076941914856434,0.8234463334083557
1790341545168044000,4.2060439453125,-0.38179078698158264,0.03481931984424591,0.817948579788208
1790341545184497000,4.222496826171875,-0.4447098970413208,-0.25534167885780334,0.8387179970741272
1790341545200948200,4.2389482421875,-0.5534439086914062,-0.37690386176109314,0.8393288254737854
1790341545217422300,4.25542236328125,0.6346889734268188,-1.6297885179519653,-0.36224308609962463
1790341545233905200,4.2719052734375,0.39767327904701233,-1.158811330795288,-0.08124507963657379
1790341545250353700,4.288353759765625,0.47280970215797424,-1.3225232362747192,-0.3017674386501312
1790341545266765800,4.304765869140625,0.47219884395599365,-1.2113457918167114,-0.06536258012056351
1790341545283214600,4.321214599609375,0.5858197808265686,-1.1282681226730347,0.16065755486488342
1790341545299663000,4.3376630859375,0.6279694437980652,-1.1539244651794434,0.2974913716316223
1790341545316141300,4.354141357421875,0.6414085030555725,-1.207680583000183,0.4147774875164032
1790341545332591600,4.370591552734375,0.6090326309204102,-1.103833556175232,0.33475416898727417
1790341545349043700,4.387043701171875,0.5442809462547302,-0.9877691268920898,0.23579397797584534
1790341545365496600,4.40349658203125,0.40072759985923767,-0.8991936445236206,0.12950342893600464
1790341545381948700,4.41994873046875,0.31154128909111023,-0.7073819637298584,0.06230825558304787
1790341545398434300,4.436434326171875,0.20952677726745605,-0.5479460954666138,-0.027488935738801956
1790341545414887000,4.452886962890625,0.08307767659425735,-0.2376265823841095,-0.1918116807937622
1790341545431367200,4.4693671875,-0.06414084881544113,-0.10934487730264664,-0.2840523421764374
1790341545447820000,4.485820068359375,-0.3677408695220947,0.08002334833145142,-0.036651913076639175
1790341545464302000,4.502302001953125,-0.5198463201522827,0.1875356286764145,0.19364428520202637
1790341545480756000,4.518755859375,-0.5534439086914062,0.4331034719944,0.5791002511978149
1790341545497207300,4.535207275390625,-0.4080579876899719,0.7336491346359253,0.7354817390441895
1790341545513627100,4.551627197265625,-0.23884831368923187,0.8790351152420044,0.720820963382721
1790341545530078200,4.568078125,-0.18631389737129211,0.7305948138237,0.5723807215690613
1790341545546531800,4.58453173828125,-0.17104226350784302,0.5644394755363464,0.513737678527832
1790341545563013000,4.60101318359375,-0.13377949595451355,0.3878994286060333,0.4050036668777466
1790341545579462000,4.6174619140625,-0.08002334833145142,0.29504790902137756,0.2779437005519867
1790341545595944000,4.63394384765625,-0.015882495790719986,0.23273965716362,0.14416420459747314
1790341545612394500,4.65039453125,0.04092797264456749,0.060475658625364304,0.07880161702632904
1790341545628859000,4.66685888671875,0.0806342139840126,-0.05497787147760391,0.03176499158143997
1790341545645308400,4.683308349609375,0.21563543379306793,-0.1765400618314743,-0.07330382615327835
1790341545661758000,4.699758056640625,0.41722095012664795,-0.2028072625398636,-0.2565633952617645
1790341545678207000,4.71620703125,0.49846604466438293,-0.940121591091156,-0.5619960427284241
1790341545694657300,4.7326572265625,0.23273965716362,-0.3084869384765625,1.0757336616516113
1790341545711109400,4.749109375,0.20525072515010834,-0.99876469373703,0.4996877610683441
1790341545727561200,4.765561279296875,0.2223549485206604,0.16982053220272064,1.0024298429489136
1790341545744012000,4.782011962890625,0.18325957655906677,0.17043140530586243,0.6921103000640869
1790341545760483800,4.79848388671875,0.2028072625398636,0.4758640229701996,0.6401867866516113
1790341545776932400,4.814932373046875,0.2321287989616394,0.5021312236785889,0.4147774875164032
1790341545793379800,4.8313798828125,0.17837265133857727,0.4392121136188507,0.24617868661880493
1790341545809852200,4.84785205078125,0.08246681094169617,0.35124751925468445,0.036041051149368286
1790341545826327800,4.864327880859375,0.04764748737215996,0.38667771220207214,-0.22296582162380219
1790341545842773200,4.880773193359375,-0.01710422709584236,0.5393940210342407,-0.43127086758613586
1790341545859263200,4.89726318359375,-0.10812314599752426,0.394618958234787,-0.5326744914054871
1790341545875708700,4.913708740234375,-0.03176499158143997,-0.006719517521560192,-0.513126790523529
1790341545892156400,4.930156494140625,0.1362229436635971,-0.24923302233219147,-0.42699480056762695
1790341545908601000,4.94660107421875,0.3335324227809906,-0.2626720666885376,-0.39156460762023926
1790341545925048000,4.963048095703125,0.43188172578811646,-0.18570303916931152,-0.42088615894317627
1790341545941493200,4.9794931640625,0.3988949954509735,-0.09407325088977814,-0.342695415019989
1790341545957934600,4.9959345703125,0.2932153046131134,-0.0354301854968071,-0.34574973583221436
1790341545974377000,5.012376953125,0.16920967400074005,-0.1820378452539444,-0.3396410644054413
1790341545990824200,5.02882421875,-0.00733038317412138,-0.2987131178379059,-0.36651915311813354
1790341546007269600,5.04526953125,-0.3017674386501312,-0.06780604273080826,-0.5485569834709167
1790341546023718000,5.0617177734375,-0.9248499870300293,0.759916365146637,-1.0348057746887207
1790341546040164000,5.0781640625,-1.3060299158096313,1.2150110006332397,-1.3897184133529663
1790341546056636200,5.09463623046875,-1.5143349170684814,1.49906325340271,-1.1050552129745483
1790341546073012500,5.111012451171875,-1.6627751588821411,0.13866640627384186,-0.979216992855072
1790341546089329200,5.1273291015625,-1.6572774648666382,-0.7238753437995911,-0.9621127843856812
1790341546105775600,5.143775634765625,-1.2974777221679688,-0.15943582355976105,-0.7012733221054077
1790341546122223900,5.160223876953125,-0.9718865752220154,0.02321287989616394,-0.7941248416900635
1790341546138674000,5.176673828125,-0.4642575979232788,-0.2938261926174164,-0.7202101349830627
1790341546155123700,5.193123779296875,-0.07880161702632904,-0.4129449129104614,-0.45631635189056396
1790341546171575000,5.209574951171875,0.19425514340400696,-0.0555887371301651,-0.46853363513946533
1790341546187995400,5.225995361328125,0.34574973583221436,-0.02382374368607998,-0.38606682419776917
1790341546204439800,5.242439697265625,0.40622538328170776,0.013439035043120384,-0.37751471996307373
1790341546220888000,5.25888818359375,0.3732386529445648,0.17043140530586243,-0.39217549562454224
1790341546237335000,5.2753349609375,0.50335294008255,0.3384193480014801,-0.3579670190811157
1790341546253810000,5.291809814453125,0.5424483418464661,0.26022860407829285,-0.28527405858039856
1790341546270256400,5.30825634765625,0.4715879559516907,0.02687807008624077,-0.12400564551353455
1790341546286700500,5.324700439453125,0.43615779280662537,0.01710422709584236,-0.054367005825042725
1790341546303169800,5.341169677734375,0.24434609711170197,-0.004886921960860491,-0.01160643994808197
1790341546319613700,5.35761376953125,0.03237585723400116,-0.08368854224681854,0.01710422709584236
1790341546336084500,5.37408447265625,-0.01771509274840355,0.003054326167330146,0.01160643994808197
1790341546352581400,5.390581298828125,-0.13866640627384186,0.001832595793530345,0.030543262138962746
1790341546369028000,5.407028076171875,-0.1417207419872284,-0.05925392732024193,-0.01038470957428217
1790341546385473300,5.423473388671875,-0.07269296050071716,-0.056810468435287476,0.006719517521560192
1790341546401967000,5.439967041015625,-0.06352998316287994,0.007941247895359993,0.04642575979232788
1790341546418427400,5.456427490234375,-0.09957103431224823,0.010995574295520782,0.10506882518529892
1790341546434874000,5.4728740234375,-0.09407325088977814,0.009773843921720982,0.08918632566928864
1790341546451320300,5.4893203125,-0.03481931984424591,0.0659734457731247,0.04764748737215996
1790341546467809000,5.50580908203125,0.12217304855585098,0.09040805697441101,0.02626720629632473
1790341546484255700,5.522255859375,0.34574973583221436,0.16920967400074005,0.07513642311096191
1790341546500626000,5.5386259765625,0.5406157374382019,0.25106561183929443,0.16310101747512817
1790341546517072400,5.555072265625,0.607810914516449,0.23579397797584534,0.24434609711170197
1790341546533560300,5.571560302734375,0.543059229850769,0.2168571650981903,0.24068090319633484
1790341546550036000,5.588035888671875,0.4050036668777466,0.03848451003432274,0.20402899384498596
1790341546566483700,5.604483642578125,0.4129449129104614,-0.2070833146572113,0.19914206862449646
1790341546582934000,5.62093408203125,0.5302310585975647,-0.21624629199504852,0.3023782968521118
1790341546599382800,5.6373828125,0.6249151229858398,0.05925392732024193,0.48319441080093384
1790341546615829200,5.653829345703125,0.637132465839386,0.12278391420841217,0.5143485069274902
1790341546632277000,5.670277099609375,0.6102544069290161,0.20097467303276062,0.5143485069274902
1790341546648725000,5.68672509765625,0.5100724697113037,0.26450464129447937,0.4538728892803192
1790341546665172000,5.703171875,0.4129449129104614,0.2626720666885376,0.32498031854629517
1790341546681615000,5.719614990234375,0.3982841372489929,0.2223549485206604,0.252287358045578
1790341546698085000,5.736085205078125,0.3585779070854187,0.26511552929878235,0.15332718193531036
1790341546714529000,5.752529052734375,0.192422553896904,0.27122417092323303,-0.07024950534105301
1790341546730971000,5.768970947265625,-0.021991148591041565,0.014049900695681572,-0.22663100063800812
1790341546747383800,5.7853837890625,-0.23457226157188416,-0.29138273000717163,-0.26145032048225403
1790341546763827000,5.801826904296875,-0.3885102868080139,-0.11301007121801376,-0.25473082065582275
1790341546780272000,5.818272216796875,-0.45204028487205505,0.07941248267889023,-0.18570303916931152
1790341546796777000,5.83477685546875,-0.4813618063926697,0.10751228034496307,0.016493361443281174
1790341546813224000,5.851223876953125,-0.39156460762023926,0.12034045159816742,0.18570303916931152
1790341546829703200,5.867703125,-0.33108896017074585,0.1466076523065567,0.3121521472930908
1790341546846152700,5.884152587890625,-0.2620611786842346,0.21013765037059784,0.4098905920982361
1790341546862532600,5.90053271484375,-0.14049901068210602,0.2028072625398636,0.39095374941825867
1790341546879010300,5.91701025390625,0.012217304669320583,0.06902777403593063,0.38179078698158264
1790341546895454000,5.933453857421875,0.252287358045578,0.10506882518529892,0.42760565876960754
1790341546911899000,5.94989892578125,0.485027015209198,0.01771509274840355,0.5186246037483215
1790341546928343300,5.96634326171875,0.7293730974197388,-0.19058994948863983,0.8234463334083557
1790341546944811500,5.9828115234375,0.7586946487426758,-0.1258382350206375,0.959669291973114
1790341546961255400,5.99925537109375,0.694553792476654,-0.051312681287527084,1.2131783962249756
1790341546977700400,6.015700439453125,0.49357911944389343,-0.0910189226269722,1.350012183189392
1790341546994064600,6.032064697265625,0.4129449129104614,-0.28649580478668213,1.0952813625335693
1790341547010505200,6.048505126953125,0.2687807083129883,-0.1667662113904953,0.827111542224884
1790341547026949400,6.064949462890625,0.1869247704744339,-0.08857546001672745,0.616973876953125
1790341547043453000,6.081452880859375,0.15882496535778046,-0.09651670604944229,0.5760459303855896
1790341547059879700,6.097879638671875,-0.04948008432984352,-0.17592918872833252,0.5125159621238708
1790341547076359200,6.114359130859375,-0.11972958594560623,0.019547687843441963,0.4740314185619354
1790341547092806100,6.13080615234375,-0.11423180252313614,-0.033597588539123535,0.5143485069274902
1790341547109254000,6.14725390625,-0.11301007121801376,-0.039706241339445114,0.5229006409645081
1790341547125735400,6.1637353515625,-0.1160643994808197,-0.15943582355976105,0.656069278717041
1790341547142181400,6.180181396484375,-0.1270599663257599,-0.05253441259264946,0.7452555894851685
1790341547158630100,6.196630126953125,-0.0910189226269722,0.06352998316287994,0.6743952035903931
1790341547175078000,6.213077880859375,0.012828170321881771,-0.1417207419872284,0.4789183437824249
1790341547191549700,6.2295498046875,0.02321287989616394,-0.1765400618314743,0.32986724376678467
1790341547207959800,6.245959716796875,0.009773843921720982,-0.08857546001672745,0.11178833991289139
1790341547224438500,6.2624384765625,-0.0024434609804302454,-0.06230825558304787,-0.03726277872920036
1790341547240932400,6.278932373046875,-0.07208210229873657,-0.1319468915462494,-0.10201449692249298
1790341547257377800,6.295377685546875,-0.20036379992961884,-0.08918632566928864,-0.13316862285137177
1790341547273850600,6.3118505859375,-0.33597588539123535,-0.13072516024112701,-0.1563815027475357
1790341547290326800,6.328326904296875,-0.4801400899887085,-0.1508837193250656,-0.11972958594560623
1790341547306773800,6.344773681640625,-0.5473352670669556,-0.07819075137376785,-0.09346238523721695
1790341547323222300,6.36122216796875,-0.5100724697113037,-0.06475171446800232,-0.09712757170200348
1790341547339669500,6.37766943359375,-0.3090978264808655,0.01038470957428217,-0.021380282938480377
1790341547356117500,6.394117431640625,-0.17409659922122955,-0.004886921960860491,0.02076941914856434
1790341547372564200,6.410564208984375,-0.10262536257505417,-0.0659734457731247,0.03787364438176155
1790341547389011700,6.42701171875,-0.1508837193250656,-0.054367005825042725,-0.004886921960860491
1790341547405458400,6.44345849609375,-0.27977627515792847,0.05803219974040985,-0.0757472887635231
1790341547421904100,6.459904052734375,-0.4404338300228119,0.03848451003432274,-0.1814269721508026
1790341547438348300,6.476348388671875,-0.494189977645874,0.02626720629632473,-0.17104226350784302
1790341547454793200,6.492793212890625,-0.4495968222618103,-0.13011430203914642,-0.0910189226269722
1790341547471238400,6.50923828125,-0.3323107063770294,-0.14538592100143433,0.007941247895359993
1790341547487714300,6.52571435546875,-0.1417207419872284,-0.036651913076639175,0.03787364438176155
1790341547504161800,6.542161865234375,-0.05253441259264946,-0.025045474991202354,0.001832595793530345
1790341547520690700,6.558690673828125,0.0555887371301651,0.04092797264456749,-0.06414084881544113
1790341547537038600,6.57503857421875,0.13744467496871948,0.09834930300712585,-0.02687807008624077
1790341547553517800,6.591517822265625,0.17470745742321014,0.06475171446800232,-0.05375614017248154
1790341547569962200,6.607962158203125,0.2125810980796814,-0.05192354694008827,-0.015882495790719986
1790341547586407000,6.624406982421875,0.08674286305904388,-0.01160643994808197,0.06841690838336945
1790341547602848800,6.640848876953125,0.07513642311096191,0.015882495790719986,0.06902777403593063
1790341547619294500,6.65729443359375,0.13500121235847473,-0.1014036312699318,0.05619960278272629
1790341547635686700,6.673686767578125,0.05375614017248154,-0.09346238523721695,-0.010995574295520782
1790341547652181000,6.690180908203125,-0.00733038317412138,0.051312681287527084,-0.12278391420841217
1790341547668630500,6.706630615234375,-0.02382374368607998,-0.1319468915462494,-0.20097467303276062
1790341547685102600,6.7231025390625,-0.036041051149368286,-0.1569923609495163,-0.2174680233001709
1790341547701544200,6.739544189453125,-0.05314527451992035,0.03848451003432274,-0.23518311977386475
1790341547717986000,6.755986083984375,0.025656340643763542,-0.08124507963657379,-0.24495697021484375
1790341547734431200,6.77243115234375,-0.06230825558304787,-0.10384709388017654,-0.30543261766433716
1790341547750873300,6.788873291015625,-0.054367005825042725,0.059864792972803116,-0.27061331272125244
1790341547767319300,6.8053193359375,-0.07819075137376785,-0.04581489413976669,-0.36163222789764404
1790341547783793700,6.821793701171875,-0.13988813757896423,0.04337143152952194,-0.31642818450927734
1790341547800237600,6.838237548828125,-0.18875735998153687,0.0659734457731247,-0.34086281061172485
1790341547816679200,6.85467919921875,-0.2064724564552307,0.08796459436416626,-0.3830125033855438
1790341547833121000,6.87112109375,-0.12400564551353455,0.0959058403968811,-0.2840523421764374
1790341547849564400,6.887564453125,-0.11728613078594208,-0.01160643994808197,-0.3243694305419922
1790341547866009300,6.90400927734375,-0.16554448008537292,0.016493361443281174,-0.3384193480014801
1790341547882488300,6.92048828125,-0.22968533635139465,0.05375614017248154,-0.31642818450927734
1790341547898933800,6.936933837890625,-0.23945917189121246,0.182648703455925,-0.32131510972976685
1790341547915373800,6.953373779296875,-0.31154128909111023,0.16004669666290283,-0.2871066629886627
1790341547931816400,6.96981640625,-0.3237585723400116,0.21624629199504852,-0.3549126982688904
1790341547948256500,6.986256591796875,-0.34574973583221436,0.1508837193250656,-0.4349360466003418
1790341547964695600,7.002695556640625,-0.24862214922904968,0.11362093687057495,-0.4001167416572571
1790341547981162200,7.019162353515625,-0.13561208546161652,0.07635815441608429,-0.30115658044815063
1790341547997604400,7.035604248046875,-0.10751228034496307,-0.001832595793530345,-0.24862214922904968
1790341548014048500,7.052048583984375,-0.013439035043120384,0.00855211354792118,-0.24862214922904968
1790341548030522000,7.068522216796875,0.11178833991289139,-0.15271630883216858,-0.44165557622909546
1790341548046967000,7.084967041015625,0.3286454975605011,-0.24556782841682434,-0.054367005825042725
1790341548062449400,7.100449462890625,0.5027421116828918,-0.14233160018920898,0.06414084881544113
1790341548078891300,7.116891357421875,0.6695083379745483,-0.1618792861700058,0.16432274878025055
1790341548095337200,7.133337158203125,0.6670648455619812,-0.17531833052635193,0.07147123664617538
1790341548111784200,7.1497841796875,0.5186246037483215,-0.2919935882091522,-0.04092797264456749
1790341548127219200,7.16521923828125,0.3029891550540924,-0.1918116807937622,-0.2736676335334778
1790341548143720200,7.18172021484375,0.22357667982578278,0.03237585723400116,-0.27488934993743896
1790341548160165400,7.198165283203125,-0.015882495790719986,-0.23884831368923187,-0.36529740691185
1790341548176608500,7.2146083984375,-0.33719760179519653,-0.048258353024721146,-0.27977627515792847
1790341548193054200,7.23105419921875,-0.252287358045578,0.16065755486488342,-0.44715335965156555
1790341548209538000,7.2475380859375,0.00427605677396059,0.17959438264369965,-0.7336491346359253
1790341548226002700,7.264002685546875,0.04581489413976669,0.3029891550540924,-0.769690215587616
1790341548242452200,7.2804521484375,0.02871066704392433,0.2565633952617645,-0.5681046843528748
1790341548258901500,7.296901611328125,0.1875356286764145,-0.06414084881544113,-0.3597996234893799
1790341548275379200,7.313379150390625,0.07696902006864548,-0.13255776464939117,-0.5027421116828918
1790341548291827700,7.32982763671875,0.012217304669320583,-0.0959058403968811,-0.5949827432632446
1790341548308277000,7.346277099609375,0.018325956538319588,-0.12522737681865692,-0.5760459303855896
1790341548324723700,7.3627236328125,0.009773843921720982,0.018936822190880775,-0.5002986192703247
1790341548341167400,7.37916748046875,-0.10812314599752426,-0.04398229718208313,-0.6548475623130798
1790341548357611000,7.395611083984375,-0.28466320037841797,0.09162978827953339,-0.8161159753799438
1790341548374058000,7.41205810546875,-0.18509216606616974,-0.08185594528913498,-0.7898487448692322
1790341548390506200,7.42850634765625,-0.08246681094169617,-0.14416420459747314,-1.0574077367782593
1790341548406951700,7.44495166015625,-0.27000242471694946,-0.10323622822761536,-1.0775662660598755
1790341548423398400,7.4613984375,-0.2724458873271942,0.056810468435287476,-0.8930850028991699
1790341548439846700,7.4778466796875,-0.09285151958465576,0.01160643994808197,-0.6976081132888794
1790341548456297500,7.49429736328125,0.012217304669320583,-0.18387043476104736,-0.33475416898727417
1790341548472764700,7.5107646484375,0.02382374368607998,0.00427605677396059,-0.3799581825733185
1790341548489213700,7.527213623046875,-0.11423180252313614,-0.15271630883216858,-0.10384709388017654
1790341548505661700,7.54366162109375,-0.3194825351238251,-0.015271631069481373,0.05192354694008827
1790341548522135000,7.560135009765625,-0.252287358045578,0.20830504596233368,0.31093040108680725
1790341548538518300,7.576518310546875,-0.05497787147760391,0.18997909128665924,0.21380282938480377
1790341548554963700,7.592963623046875,0.028099801391363144,0.19058994948863983,0.1215621829032898
1790341548571409000,7.609408935546875,0.025656340643763542,0.16493362188339233,0.02076941914856434
1790341548587888600,7.625888671875,-0.018325956538319588,0.014049900695681572,-0.09529497474431992
1790341548604348400,7.642348388671875,-0.045204028487205505,-0.024434609338641167,-0.14538592100143433
1790341548620814000,7.65881396484375,0.07880161702632904,0.018325956538319588,-0.025045474991202354
1790341548637318000,7.67531787109375,-0.016493361443281174,-0.059864792972803116,0.0659734457731247
1790341548653816300,7.69181640625,0.08002334833145142,0.016493361443281174,0.17592918872833252
1790341548670263600,7.708263671875,0.1215621829032898,-0.028099801391363144,0.17959438264369965
1790341548686711300,7.724711181640625,0.05619960278272629,-0.06414084881544113,0.2993239760398865
1790341548703159600,7.74115966796875,0.14477506279945374,0.0959058403968811,0.39095374941825867
1790341548719635700,7.7576357421875,0.35124751925468445,0.056810468435287476,0.485027015209198
1790341548736082000,7.77408203125,0.37262779474258423,0.07269296050071716,0.5222898125648499
1790341548752528400,7.7905283203125,0.40133845806121826,0.11178833991289139,0.5968153476715088
1790341548769003000,7.8070029296875,0.28038713335990906,0.09651670604944229,0.44654250144958496
1790341548785450800,7.82345068359375,0.24129177629947662,0.06719517707824707,0.40622538328170776
1790341548801899300,7.839899169921875,0.24373523890972137,-0.07269296050071716,0.3628539443016052
1790341548818346000,7.856345947265625,0.242513507604599,-0.025656340643763542,0.3787364661693573
1790341548834794000,7.8727939453125,0.21380282938480377,-0.03787364438176155,0.3384193480014801
1790341548851242500,7.889242431640625,0.17531833052635193,-0.0959058403968811,0.34025195240974426
1790341548867690000,7.90568994140625,0.0006108652451075613,-0.022602014243602753,0.18448130786418915
1790341548884183300,7.922183349609375,0.07452555745840073,-0.05864306539297104,0.22418753802776337
1790341548900630500,7.938630615234375,-0.08368854224681854,-0.1417207419872284,0.09224065393209457
1790341548917077500,7.955077392578125,-0.1111774742603302,-0.01160643994808197,0.03176499158143997
1790341548933524000,7.97152392578125,-0.05619960278272629,-0.06108652427792549,-0.07024950534105301
1790341548949971500,7.987971435546875,-0.1270599663257599,-0.08246681094169617,-0.10751228034496307
1790341548966477000,8.00447705078125,-0.2070833146572113,0.02382374368607998,-0.19425514340400696
1790341548982924300,8.02092431640625,-0.16982053220272064,-0.015882495790719986,-0.16065755486488342
1790341548999371800,8.037371826171874,-0.22540926933288574,-0.05192354694008827,-0.12461651116609573
1790341549015879000,8.05387890625,-0.1466076523065567,0.022602014243602753,-0.11789698898792267
1790341549032326100,8.070326171875,-0.11972958594560623,-0.13561208546161652,-0.08002334833145142
1790341549048801300,8.08680126953125,-0.18448130786418915,0.016493361443281174,-0.06352998316287994
1790341549065150200,8.103150146484374,-0.12950342893600464,-0.0659734457731247,-0.06414084881544113
1790341549081614300,8.1196142578125,-0.1508837193250656,-0.10873401165008545,0.02382374368607998
1790341549098135300,8.13613525390625,-0.24007004499435425,-0.0012217304902151227,-0.12278391420841217
1790341549114584600,8.15258447265625,-0.16065755486488342,0.00366519158706069,-0.09834930300712585
1790341549131063600,8.1690634765625,-0.19303341209888458,-0.06169738993048668,-0.0659734457731247
1790341549147513300,8.185513427734374,-0.21380282938480377,0.0757472887635231,-0.07391469180583954
1790341549163979500,8.2019794921875,-0.12828169763088226,0.01771509274840355,-0.12767083942890167
1790341549180453600,8.21845361328125,-0.07635815441608429,0.007941247895359993,-0.12400564551353455
1790341549196903000,8.23490283203125,-0.10873401165008545,0.009773843921720982,-0.11667526513338089
1790341549213318700,8.251318603515625,-0.06108652427792549,0.03848451003432274,-0.13866640627384186
1790341549229722400,8.267722412109375,-0.00427605677396059,0.012217304669320583,-0.054367005825042725
1790341549246241800,8.28424169921875,-0.027488935738801956,0.02626720629632473,-0.04642575979232788
1790341549262764800,8.300764892578124,0.01771509274840355,0.015882495790719986,-0.01771509274840355
1790341549279254800,8.3172548828125,-0.018325956538319588,0.018936822190880775,-0.04703662544488907
1790341549295765000,8.333764892578126,-0.0012217304902151227,0.018325956538319588,-0.012828170321881771
1790341549312266000,8.350265869140625,-0.001832595793530345,-0.0024434609804302454,0.027488935738801956
1790341549328746800,8.366746826171875,0.02626720629632473,0.045204028487205505,-0.00366519158706069
1790341549345241600,8.38324169921875,0.04092797264456749,0.0024434609804302454,-0.05314527451992035
1790341549361708800,8.399708740234376,0.09346238523721695,-0.01466076634824276,-0.04642575979232788
1790341549378205700,8.416205810546876,0.030543262138962746,-0.001832595793530345,-0.027488935738801956
1790341549394706400,8.43270654296875,0.06658431142568588,0.05253441259264946,0.018936822190880775
1790341549411230000,8.44922998046875,0.06780604273080826,-0.007941247895359993,0.04398229718208313
1790341549427724800,8.465724853515624,0.03848451003432274,-0.00855211354792118,0.02626720629632473
1790341549444193000,8.482193115234375,0.02626720629632473,0.08735372871160507,0.06841690838336945
1790341549460716000,8.498716064453125,0.02871066704392433,0.01038470957428217,0.04886921867728233
1790341549477220600,8.515220703125,-0.12461651116609573,0.08124507963657379,0.11789698898792267
1790341549493673000,8.5316728515625,-0.08185594528913498,0.1417207419872284,0.1417207419872284
1790341549510151400,8.5481513671875,-0.07757988572120667,0.02015855349600315,0.14477506279945374
1790341549526602200,8.564602294921874,-0.07147123664617538,0.10262536257505417,0.1618792861700058
1790341549543051000,8.581051025390625,-0.014049900695681572,0.04337143152952194,0.1612684279680252
1790341549559443500,8.597443359375,0.08307767659425735,0.01466076634824276,0.17043140530586243
1790341549575894300,8.613894287109375,0.0861319974064827,0.03481931984424591,0.04886921867728233
1790341549592346000,8.63034619140625,0.13927727937698364,0.014049900695681572,0.033597588539123535
1790341549608793900,8.6467939453125,0.1722639948129654,0.039706241339445114,-0.09285151958465576
1790341549625242400,8.663242431640626,0.17348572611808777,0.051312681287527084,-0.17531833052635193
1790341549641619000,8.679618896484374,0.2015855312347412,-0.009162978269159794,-0.17043140530586243
1790341549658067500,8.6960673828125,0.11362093687057495,-0.059864792972803116,-0.192422553896904
1790341549674515500,8.712515380859376,0.09529497474431992,0.03420845419168472,-0.20891591906547546
1790341549690962400,8.72896240234375,0.1270599663257599,0.00366519158706069,-0.16859880089759827
1790341549707440400,8.7454404296875,0.04764748737215996,0.04581489413976669,-0.14477506279945374
1790341549723889200,8.76188916015625,0.0024434609804302454,0.006719517521560192,-0.07208210229873657
1790341549740408300,8.778408203125,-0.01038470957428217,0.054367005825042725,-0.05925392732024193
1790341549756930600,8.7949306640625,0.007941247895359993,0.030543262138962746,-0.07452555745840073
1790341549773424400,8.81142431640625,-0.02321287989616394,0.019547687843441963,0.07269296050071716
1790341549789885700,8.8278857421875,0.06963863968849182,0.04886921867728233,0.1319468915462494
1790341549806334700,8.844334716796874,0.03237585723400116,-0.06658431142568588,0.1722639948129654
1790341549822783000,8.860782958984375,-0.039706241339445114,0.03298672288656235,0.19425514340400696
1790341549839228000,8.877227783203125,-0.025045474991202354,-0.02382374368607998,0.22663100063800812
1790341549855671300,8.89367138671875,-0.028099801391363144,-0.01771509274840355,0.192422553896904
1790341549872116200,8.9101162109375,-0.04642575979232788,0.027488935738801956,0.10201449692249298
1790341549888563200,8.926563232421875,0.014049900695681572,0.001832595793530345,0.09529497474431992
1790341549905117000,8.943116943359374,0.015271631069481373,-0.015271631069481373,0.06291911751031876
1790341549921607000,8.95960693359375,-0.0006108652451075613,-0.007941247895359993,0.059864792972803116
1790341549938074000,8.97607421875,0.012217304669320583,0.025656340643763542,0.13377949595451355
1790341549954551600,8.992551513671875,0.01160643994808197,0.030543262138962746,0.0959058403968811
1790341549971000300,9.009000244140625,0.05253441259264946,0.05742133408784866,0.18020524084568024
1790341549987447600,9.025447509765625,0.06719517707824707,0.03848451003432274,0.07024950534105301
1790341550003955500,9.04195556640625,0.02321287989616394,0.009162978269159794,-0.01160643994808197
1790341550020446500,9.058446533203124,0.04581489413976669,0.05925392732024193,0
1790341550036951300,9.074951416015624,0.0507018156349659,0.03298672288656235,-0.04703662544488907
1790341550053382400,9.09138232421875,-0.03298672288656235,0.007941247895359993,-0.08368854224681854
1790341550069900000,9.107900146484376,-0.030543262138962746,0.0708603709936142,-0.015271631069481373
1790341550086364200,9.1243642578125,-0.0403171069920063,-0.02687807008624077,-0.0757472887635231
1790341550102837000,9.1408369140625,-0.08246681094169617,0.039706241339445114,-0.08674286305904388
1790341550119289900,9.157289794921875,-0.06719517707824707,0.08735372871160507,-0.04092797264456749
1790341550135737600,9.173737548828125,-0.02871066704392433,-0.05619960278272629,-0.06108652427792549
1790341550152226800,9.190226806640625,-0.11789698898792267,0.0024434609804302454,-0.06352998316287994
1790341550168701000,9.206700927734374,-0.06902777403593063,0.04092797264456749,-0.021991148591041565
1790341550185209000,9.223208984375,-0.07147123664617538,-0.04581489413976669,0.00855211354792118
1790341550201747000,9.239746826171874,-0.03298672288656235,0.030543262138962746,0.11362093687057495
1790341550218199300,9.25619921875,0.010995574295520782,0.007941247895359993,0.018325956538319588
1790341550234562600,9.2725625,0.018325956538319588,-0.0006108652451075613,0.030543262138962746
1790341550251086300,9.28908642578125,-0.003054326167330146,0.04764748737215996,-0.025656340643763542
1790341550267579400,9.305579345703125,0,-0.05803219974040985,-0.0403171069920063
1790341550284086500,9.32208642578125,0,-0.02321287989616394,-0.08307767659425735
1790341550300568600,9.338568603515625,-0.05497787147760391,-0.029932396486401558,-0.16065755486488342
1790341550317018400,9.355018310546875,-0.07147123664617538,-0.09896016865968704,-0.16493362188339233
1790341550333497600,9.37149755859375,-0.05864306539297104,0.02015855349600315,-0.1918116807937622
1790341550349948000,9.387947998046876,-0.10384709388017654,-0.10690141469240189,-0.1569923609495163
1790341550366415400,9.404415283203125,-0.23090706765651703,0.019547687843441963,-0.13316862285137177
1790341550382861600,9.420861572265625,-0.19486601650714874,-0.01038470957428217,-0.08124507963657379
1790341550399328800,9.437328857421875,-0.2278527319431305,-0.05009094998240471,-0.08979719132184982
1790341550415801300,9.45380126953125,-0.24434609711170197,-0.01771509274840355,-0.006719517521560192
1790341550432252200,9.470252197265625,-0.15821409225463867,0.08735372871160507,-0.0006108652451075613
1790341550448776000,9.48677587890625,-0.08246681094169617,-0.06414084881544113,0.01710422709584236
1790341550465222400,9.503222412109375,-0.03848451003432274,0.05497787147760391,0.03726277872920036
1790341550481739000,9.519739013671876,-0.012217304669320583,0.012217304669320583,-0.021991148591041565
1790341550498262300,9.53626220703125,-0.005497787147760391,-0.05497787147760391,-0.04703662544488907
1790341550514725000,9.55272509765625,0.003054326167330146,0.021991148591041565,-0.11545353382825851
1790341550531169500,9.56916943359375,0.02321287989616394,-0.06414084881544113,-0.16920967400074005
1790341550547611100,9.585611083984375,0.02076941914856434,-0.0024434609804302454,-0.19853121042251587
1790341550564093700,9.60209375,0.0555887371301651,-0.019547687843441963,-0.17837265133857727
1790341550580541000,9.618541015625,0.02382374368607998,-0.0959058403968811,-0.1716531366109848
1790341550596920000,9.634920166015625,0.015271631069481373,0.001832595793530345,-0.08674286305904388
1790341550613423400,9.65142333984375,0.0708603709936142,-0.09285151958465576,0.02932153269648552
1790341550629870300,9.667870361328125,0.06841690838336945,-0.004886921960860491,0.09834930300712585
1790341550646315300,9.684315185546875,0.08674286305904388,-0.02932153269648552,0.13011430203914642
1790341550662760400,9.700760498046876,0.09162978827953339,-0.036651913076639175,0.14416420459747314
1790341550679205600,9.71720556640625,0.1215621829032898,-0.02076941914856434,0.2028072625398636
1790341550695682600,9.7336826171875,0.16493362188339233,-0.02382374368607998,0.22418753802776337
1790341550712128500,9.75012841796875,0.15332718193531036,-0.02382374368607998,0.1417207419872284
1790341550728575700,9.76657568359375,0.0861319974064827,-0.03237585723400116,0.06902777403593063
1790341550745084400,9.78308447265625,0.0757472887635231,0.004886921960860491,0.01771509274840355
1790341550761576000,9.799575927734375,-0.004886921960860491,-0.05864306539297104,-0.06352998316287994
1790341550778085400,9.81608544921875,-0.09162978827953339,0.03726277872920036,-0.0403171069920063
1790341550794533600,9.83253369140625,-0.036041051149368286,-0.04214970022439957,-0.09285151958465576
1790341550810980600,9.848980712890626,-0.10201449692249298,-0.022602014243602753,-0.11850785464048386
1790341550827430700,9.8654306640625,-0.11056660860776901,0.021991148591041565,-0.07452555745840073
1790341550843904000,9.881904052734376,-0.08307767659425735,0.007941247895359993,0.015271631069481373
1790341550860405800,9.89840576171875,-0.07513642311096191,0.0024434609804302454,0.05925392732024193
1790341550876900600,9.914900634765624,-0.02932153269648552,-0.021991148591041565,0.09773843735456467
1790341550893393200,9.93139306640625,0.03787364438176155,0.012828170321881771,0.04581489413976669
1790341550909858300,9.9478583984375,0.03420845419168472,-0.0507018156349659,0.01160643994808197
1790341550926389200,9.96438916015625,0.02687807008624077,-0.06414084881544113,-0.00733038317412138
1790341550942927000,9.980927001953125,0.05497787147760391,-0.07330382615327835,-0.10812314599752426
1790341550959377700,9.997377685546875,-0.07024950534105301,-0.04886921867728233,-0.19914206862449646
1790341550975828700,10.013828857421874,-0.07147123664617538,-0.06108652427792549,-0.192422553896904
1790341550992308200,10.03030810546875,-0.02076941914856434,-0.018936822190880775,-0.17104226350784302
1790341551008759000,10.046759033203125,-0.10812314599752426,-0.0757472887635231,-0.1472185254096985
1790341551025209600,10.063209716796875,-0.22296582162380219,0.031154127791523933,-0.10873401165008545
1790341551041659000,10.079658935546876,-0.24434609711170197,-0.06230825558304787,-0.018936822190880775
1790341551057967600,10.095967529296875,-0.30115658044815063,0.010995574295520782,0.04459316283464432
1790341551074348000,10.11234814453125,-0.22602014243602753,0.009773843921720982,0.07024950534105301
1790341551090759400,10.128759521484374,-0.20341812074184418,-0.08857546001672745,0.054367005825042725
1790341551107206400,10.145206298828125,-0.2119702398777008,0.04764748737215996,0.07269296050071716
1790341551123653400,10.1616533203125,-0.0959058403968811,-0.036041051149368286,0.01038470957428217
1790341551140102700,10.1781025390625,-0.12767083942890167,-0.03237585723400116,-0.07696902006864548
1790341551156551400,10.194551513671875,-0.13377949595451355,0.08674286305904388,-0.11850785464048386
1790341551172995800,10.210995849609375,-0.06963863968849182,0.024434609338641167,-0.1722639948129654
1790341551189473500,10.2274736328125,-0.09529497474431992,-0.02015855349600315,-0.24617868661880493
1790341551205922800,10.2439228515625,-0.2070833146572113,0.012217304669320583,-0.2571742534637451
1790341551222372000,10.2603720703125,-0.1667662113904953,-0.01160643994808197,-0.10873401165008545
1790341551238849300,10.276849365234375,-0.08552113175392151,-0.04459316283464432,-0.04764748737215996
1790341551255298000,10.293298095703125,-0.14416420459747314,0.010995574295520782,0.025045474991202354
1790341551271747300,10.309747314453125,-0.0555887371301651,0.0354301854968071,0.1459967941045761
1790341551288194800,10.32619482421875,-0.016493361443281174,-0.04153883829712868,0.11056660860776901
1790341551304656100,10.34265625,-0.02687807008624077,0.03298672288656235,0.0910189226269722
1790341551321105700,10.359105712890624,0.054367005825042725,0.03298672288656235,0.12339477986097336
1790341551337553700,10.3755537109375,0.05009094998240471,0.039095375686883926,0.11362093687057495
1790341551354010000,10.392010009765626,0.029932396486401558,-0.009162978269159794,0.005497787147760391
1790341551370507500,10.408507568359376,0.0507018156349659,0.025656340643763542,-0.054367005825042725
1790341551387026700,10.425026611328125,0.0555887371301651,0.004886921960860491,-0.05314527451992035
1790341551403482600,10.441482666015625,0.031154127791523933,-0.06963863968849182,-0.1459967941045761
1790341551419928300,10.45792822265625,0.019547687843441963,-0.01466076634824276,-0.17592918872833252
1790341551436409300,10.474409423828124,-0.039706241339445114,-0.03481931984424591,-0.21930062770843506
1790341551452860000,10.49085986328125,-0.019547687843441963,0.00733038317412138,-0.10323622822761536
1790341551469310200,10.507310302734375,-0.04337143152952194,-0.02626720629632473,-0.11972958594560623
1790341551485787400,10.523787353515624,-0.07513642311096191,-0.014049900695681572,-0.045204028487205505
1790341551502279200,10.540279052734375,0.01038470957428217,-0.04886921867728233,0.01771509274840355
1790341551518738700,10.55673876953125,0.00366519158706069,0.00427605677396059,0.0708603709936142
1790341551535218000,10.573218017578125,-0.027488935738801956,-0.0006108652451075613,0.15882496535778046
1790341551551667500,10.58966748046875,0.05253441259264946,0.09040805697441101,0.17043140530586243
1790341551568184300,10.606184326171874,0.08491026610136032,-0.0354301854968071,0.2015855312347412
1790341551584632600,10.622632568359375,0.03237585723400116,-0.01160643994808197,0.16432274878025055
1790341551600092700,10.6380927734375,0.06719517707824707,0.0354301854968071,0.15943582355976105
1790341551616539000,10.654538818359375,0.14844025671482086,-0.045204028487205505,0.1264491081237793
1790341551633017000,10.67101708984375,0.06108652427792549,-0.054367005825042725,0.02382374368607998
1790341551649505500,10.687505615234375,0.013439035043120384,0.08002334833145142,-0.07147123664617538
1790341551665949000,10.703948974609375,0.03481931984424591,-0.07269296050071716,-0.12217304855585098
1790341551682362000,10.720362060546876,-0.08735372871160507,0.013439035043120384,-0.19547687470912933
1790341551698808600,10.73680859375,-0.02076941914856434,0.03237585723400116,-0.06352998316287994
1790341551715330600,10.75333056640625,0.033597588539123535,0.01710422709584236,-0.05192354694008827
1790341551731821600,10.769821533203125,-0.10445795953273773,-0.08979719132184982,-0.029932396486401558
1790341551748274700,10.786274658203125,0.005497787147760391,0.06169738993048668,0.10201449692249298
1790341551764723700,10.8027236328125,0.04764748737215996,-0.07147123664617538,0.152105450630188
1790341551781168600,10.819168701171876,-0.05253441259264946,0.05253441259264946,0.04459316283464432
1790341551797654300,10.835654296875,0.06108652427792549,0.04337143152952194,0.04642575979232788
1790341551814113500,10.852113525390624,0.09957103431224823,-0.10384709388017654,0.004886921960860491
1790341551830587100,10.868587158203125,-0.013439035043120384,0.06414084881544113,0.0024434609804302454
1790341551847060500,10.885060546875,0.05375614017248154,0.030543262138962746,0.01710422709584236
1790341551863552800,10.901552734375,0.006108652334660292,-0.0708603709936142,-0.08552113175392151
1790341551879998200,10.917998291015625,-0.030543262138962746,0.02382374368607998,-0.09773843735456467
1790341551896479200,10.934479248046875,-0.04337143152952194,-0.001832595793530345,-0.10690141469240189
1790341551912926000,10.950926025390626,-0.036651913076639175,-0.07880161702632904,-0.08796459436416626
1790341551929433600,10.96743359375,-0.10262536257505417,0.01160643994808197,-0.14844025671482086
1790341551945916400,10.98391650390625,-0.04581489413976669,-0.013439035043120384,-0.16493362188339233
1790341551962365700,11.00036572265625,-0.06475171446800232,-0.04337143152952194,-0.12339477986097336
1790341551978870500,11.01687060546875,-0.0910189226269722,0.03176499158143997,-0.03176499158143997
1790341551995342600,11.033342529296876,-0.08796459436416626,0.007941247895359993,0.0910189226269722
1790341552011818000,11.04981787109375,-0.06780604273080826,0.0659734457731247,0.07452555745840073
1790341552028269300,11.066269287109375,-0.07024950534105301,0.01466076634824276,0.14782938361167908
1790341552044721700,11.0827216796875,-0.039706241339445114,0.07147123664617538,0.17959438264369965
1790341552061130200,11.099130126953124,0.027488935738801956,0.021380282938480377,0.14355333149433136
1790341552077604400,11.115604248046875,-0.07330382615327835,-0.03237585723400116,0.018325956538319588
1790341552094076000,11.132075927734375,0.054367005825042725,0.07880161702632904,-0.09224065393209457
1790341552110524000,11.14852392578125,-0.006719517521560192,-0.07880161702632904,-0.20952677726745605
1790341552126968300,11.16496826171875,-0.03726277872920036,0.12034045159816742,-0.20952677726745605
1790341552143414500,11.18141455078125,0.07452555745840073,-0.08918632566928864,-0.16859880089759827
1790341552159861000,11.197861083984375,-0.007941247895359993,0.005497787147760391,-0.19058994948863983
1790341552176337700,11.214337646484376,-0.012828170321881771,-0.033597588539123535,-0.05864306539297104
1790341552192801000,11.230801025390624,0.07696902006864548,-0.02871066704392433,0.06352998316287994
1790341552209247200,11.247247314453125,0.060475658625364304,-0.01038470957428217,0.12217304855585098
1790341552225723100,11.26372314453125,0.07330382615327835,0.01771509274840355,0.13744467496871948
1790341552242172700,11.280172607421875,0.22602014243602753,-0.016493361443281174,0.11850785464048386
1790341552258622200,11.296622314453124,0.16065755486488342,-0.07452555745840073,0.11178833991289139
1790341552274908700,11.31290869140625,0.1514945775270462,0.019547687843441963,0.06536258012056351
1790341552291358200,11.329358154296875,0.15332718193531036,-0.09529497474431992,0.05803219974040985
1790341552307805000,11.345804931640625,0.051312681287527084,0.039706241339445114,-0.004886921960860491
1790341552324298500,11.362298583984375,0.06658431142568588,-0.0012217304902151227,0.018325956538319588
1790341552340758300,11.37875830078125,0.0555887371301651,-0.05009094998240471,-0.012828170321881771
1790341552357255400,11.39525537109375,-0.001832595793530345,0.025656340643763542,-0.08674286305904388
1790341552373744000,11.411744140625,0.02015855349600315,-0.018936822190880775,-0.025045474991202354
1790341552390237200,11.4282373046875,0.04398229718208313,0,-0.05314527451992035
1790341552406731800,11.444731689453125,0.02626720629632473,-0.018936822190880775,-0.02932153269648552
1790341552423257600,11.461257568359375,-0.015882495790719986,0.06719517707824707,-0.08979719132184982
1790341552439724500,11.477724609375,0.07757988572120667,0.05742133408784866,0.027488935738801956
1790341552456202500,11.494202392578124,0.04153883829712868,-0.0861319974064827,0.031154127791523933
1790341552472692000,11.51069189453125,0.01466076634824276,0.10018189996480942,0.05925392732024193
1790341552489144300,11.527144287109374,0.054367005825042725,-0.07880161702632904,0.09224065393209457
1790341552505621800,11.543621826171876,0.09957103431224823,-0.02382374368607998,0.1062905490398407
1790341552522068200,11.560068115234374,0.15454891324043274,-0.04398229718208313,0.042760565876960754
1790341552538516200,11.57651611328125,0.20097467303276062,-0.06108652427792549,0.021991148591041565
1790341552554991400,11.592991455078124,0.1466076523065567,-0.04398229718208313,-0.007941247895359993
1790341552571377000,11.609376953125,0.18325957655906677,-0.08735372871160507,-0.08185594528913498
1790341552587849700,11.625849609375,0.15515977144241333,-0.08491026610136032,-0.11484266817569733
1790341552604264200,11.64226416015625,0.12217304855585098,-0.03237585723400116,-0.14477506279945374
1790341552620692200,11.658692138671874,0.09896016865968704,-0.05009094998240471,-0.14355333149433136
1790341552637165600,11.67516552734375,0.04948008432984352,-0.02687807008624077,-0.20341812074184418
1790341552653612500,11.691612548828125,0.01710422709584236,0.012828170321881771,-0.19853121042251587
1790341552670032600,11.70803271484375,-0.005497787147760391,-0.036041051149368286,-0.09040805697441101
1790341552686530800,11.72453076171875,-0.06719517707824707,0.009162978269159794,-0.04214970022439957
1790341552703050500,11.741050537109375,-0.06658431142568588,0.0354301854968071,0.006108652334660292
1790341552719572000,11.757572021484375,-0.04948008432984352,-0.0006108652451075613,0.1514945775270462
1790341552736021200,11.774021240234376,-0.13805554807186127,0.06352998316287994,0.10567969083786011
1790341552752499500,11.79049951171875,-0.15393804013729095,-0.015882495790719986,-0.06352998316287994
1790341552768948200,11.8069482421875,-0.24617868661880493,0.029932396486401558,-0.02321287989616394
1790341552785395500,11.8233955078125,-0.21074850857257843,0.06902777403593063,-0.21502456068992615
1790341552801870300,11.839870361328124,-0.10751228034496307,-0.05803219974040985,-0.025045474991202354
1790341552818317300,11.8563173828125,-0.20463985204696655,-0.00733038317412138,-0.12034045159816742
1790341552834793700,11.872793701171876,-0.10751228034496307,0.05192354694008827,-0.03848451003432274
1790341552851263000,11.889262939453126,0.013439035043120384,-0.08429940044879913,0.004886921960860491
1790341552867746300,11.905746337890625,0.03298672288656235,0.009773843921720982,-0.00366519158706069
1790341552884206300,11.922206298828126,0.10934487730264664,-0.03420845419168472,0.11545353382825851
1790341552900650000,11.93864990234375,0.1563815027475357,0.06414084881544113,-0.0012217304902151227
1790341552917143800,11.955143798828125,0.2577851414680481,-0.02932153269648552,-0.2791654169559479
1790341552933590500,11.971590576171875,0.15821409225463867,0.01771509274840355,-0.12522737681865692
1790341552949979600,11.987979736328125,0.15027284622192383,0.15271630883216858,0.00733038317412138
1790341552966482400,12.004482421875,0.0659734457731247,-0.15454891324043274,-0.16798794269561768
1790341552982928100,12.02092822265625,-0.004886921960860491,0.03176499158143997,0.019547687843441963
1790341552999388000,12.037387939453126,-0.12217304855585098,0.02076941914856434,0.054367005825042725
1790341553015836700,12.053836669921875,-0.4050036668777466,0.13744467496871948,0.09346238523721695
1790341553032287700,12.070287841796874,-0.3237585723400116,0.24923302233219147,0.19975294172763824
1790341553048788000,12.0867880859375,-0.11484266817569733,0.0024434609804302454,0.4001167416572571
1790341553065237200,12.1032373046875,-0.1814269721508026,0.17470745742321014,0.06902777403593063
1790341553081688000,12.11968798828125,-0.15882496535778046,0.17409659922122955,-0.21135938167572021
1790341553098139100,12.13613916015625,-0.08857546001672745,-0.2028072625398636,-0.25534167885780334
1790341553114558000,12.152557861328125,-0.06536258012056351,0.06780604273080826,-0.35185837745666504
1790341553130995500,12.168995361328125,-0.004886921960860491,-0.14294247329235077,-0.2174680233001709
1790341553147383000,12.185383056640624,0.05803219974040985,-0.13377949595451355,-0.24617868661880493
1790341553163849700,12.201849609375,0.04092797264456749,-0.05192354694008827,-0.19303341209888458
1790341553180299300,12.21829931640625,0.30543261766433716,-0.006719517521560192,-0.14416420459747314
1790341553196750000,12.23475,0.39767327904701233,-0.06658431142568588,-0.2168571650981903
1790341553213232400,12.251232421875,0.3390302062034607,0.00733038317412138,-0.7055493593215942
1790341553229684000,12.26768408203125,0.4899139404296875,-0.019547687843441963,-0.2620611786842346
1790341553246131500,12.28413134765625,0.2926044464111328,0.01038470957428217,-0.2724458873271942
1790341553262583000,12.3005830078125,0.17959438264369965,0.025656340643763542,-0.45204028487205505
1790341553278984200,12.316984130859375,-0.09529497474431992,-0.23640485107898712,-0.029932396486401558
1790341553295432000,12.333431884765625,-0.1563815027475357,0.33658674359321594,0.0403171069920063
1790341553311878000,12.3498779296875,0.025656340643763542,-0.33536502718925476,-0.13439035415649414
1790341553328322600,12.366322509765626,-0.5974262356758118,0.19608774781227112,0.02932153269648552
1790341553344766700,12.3827666015625,-0.455705463886261,0.616973876953125,0.7739662528038025
1790341553361215200,12.39921533203125,-0.3274237811565399,-0.03237585723400116,0.485027015209198
1790341553377664000,12.4156640625,-0.484416127204895,-0.10201449692249298,0.20830504596233368
1790341553394111200,12.432111328125,-0.18875735998153687,0.17959438264369965,0.1014036312699318
1790341553410571300,12.4485712890625,-0.15760323405265808,-0.039095375686883926,-0.242513507604599
1790341553427015400,12.465015380859375,0.09040805697441101,0.1973094791173935,-0.36713001132011414
1790341553443459800,12.4814599609375,0.08918632566928864,0.025045474991202354,-0.4331034719944
1790341553459935700,12.497935791015625,0.15760323405265808,-0.2070833146572113,-0.3579670190811157
1790341553476383200,12.51438330078125,0.2223549485206604,0.07330382615327835,-0.1869247704744339
1790341553492830000,12.530829833984376,0.39156460762023926,-0.04886921867728233,0.1258382350206375
1790341553509277000,12.54727685546875,0.4447098970413208,0.02076941914856434,0.4251621961593628
1790341553525721900,12.563721923828124,0.5302310585975647,0.06414084881544113,0.598647952079773
1790341553542164500,12.58016455078125,0.43737950921058655,0.014049900695681572,0.45692721009254456
1790341553558607000,12.596607177734375,0.3439171314239502,-0.012217304669320583,0.36224308609962463
1790341553575010600,12.613010498046876,0.24068090319633484,0.025045474991202354,0.22540926933288574
1790341553591454000,12.629453857421876,0.13316862285137177,0.01160643994808197,-0.04886921867728233
1790341553607902200,12.645902099609375,-0.03298672288656235,0.0507018156349659,-0.08796459436416626
1790341553624361200,12.662361328125,-0.1111774742603302,0.012217304669320583,-0.00855211354792118
1790341553640810000,12.67881005859375,-0.1612684279680252,0.06841690838336945,0.09346238523721695
1790341553657287000,12.695286865234374,-0.1875356286764145,0.0659734457731247,0.2669481039047241
1790341553673732400,12.711732421875,-0.3500257730484009,0.05619960278272629,0.43799036741256714
1790341553690175000,12.728175048828126,-0.34208452701568604,0.10690141469240189,0.45631635189056396
1790341553706650400,12.744650390625,-0.11301007121801376,-0.025656340643763542,0.4245513379573822
1790341553723097900,12.761097900390626,-0.04092797264456749,0.051312681287527084,0.2932153046131134
1790341553739545600,12.777545654296874,0.12461651116609573,0.09224065393209457,0.22846360504627228
1790341553755993900,12.793993896484375,0.20952677726745605,-0.05742133408784866,-0.013439035043120384
1790341553772441300,12.81044140625,0.18875735998153687,0.06536258012056351,-0.1472185254096985
1790341553788891100,12.82689111328125,0.24678955972194672,-0.0006108652451075613,-0.19608774781227112
1790341553805336800,12.8433369140625,0.31031954288482666,-0.07147123664617538,-0.26083946228027344
1790341553821784000,12.8597841796875,0.26511552929878235,-0.10873401165008545,-0.2541199326515198
1790341553838231000,12.87623095703125,0.2028072625398636,-0.07391469180583954,-0.26633724570274353
1790341553854680800,12.892680908203126,0.17592918872833252,-0.16249015927314758,-0.27061331272125244
1790341553871127000,12.909126953125,0.0806342139840126,-0.07513642311096191,-0.15821409225463867
1790341553887573500,12.925573486328124,0.060475658625364304,-0.07269296050071716,-0.08368854224681854
1790341553904052500,12.942052490234374,-0.045204028487205505,-0.08002334833145142,-0.13255776464939117
1790341553920498200,12.958498291015625,-0.13744467496871948,0,-0.05742133408784866
1790341553936944000,12.974944091796875,-0.2021963894367218,-0.13439035415649414,0.0659734457731247
1790341553953352400,12.9913525390625,-0.36224308609962463,-0.03237585723400116,0.03726277872920036
1790341553969800700,13.00780078125,-0.3176499307155609,0.01710422709584236,0.04703662544488907
1790341553986250800,13.024250732421875,-0.26450464129447937,-0.07513642311096191,0.05375614017248154
1790341554002698800,13.04069873046875,-0.34208452701568604,0.09407325088977814,-0.05497787147760391
1790341554019146000,13.05714599609375,-0.2828305959701538,0.07757988572120667,-0.10690141469240189
1790341554035592200,13.07359228515625,-0.18997909128665924,-0.05314527451992035,-0.14905111491680145
1790341554052039200,13.0900390625,-0.2278527319431305,0.06475171446800232,-0.2968805134296417
1790341554068419300,13.10641943359375,-0.1417207419872284,0.02382374368607998,-0.35185837745666504
1790341554084832500,13.12283251953125,-0.10751228034496307,-0.1007927656173706,-0.3995058834552765
1790341554101247500,13.13924755859375,-0.15271630883216858,-0.06780604273080826,-0.3646865487098694
1790341554117693700,13.155693603515624,-0.1313360333442688,-0.10201449692249298,-0.2919935882091522
1790341554134141700,13.1721416015625,-0.060475658625364304,-0.11972958594560623,-0.26083946228027344
1790341554150611000,13.18861083984375,-0.048258353024721146,-0.1007927656173706,-0.2474004179239273
1790341554167057400,13.205057373046875,0.04948008432984352,-0.09468411654233932,-0.19547687470912933
1790341554183509800,13.221509765625,0.039095375686883926,-0.09407325088977814,-0.10384709388017654
1790341554200022300,13.238022216796875,0.059864792972803116,0.003054326167330146,-0.04703662544488907
1790341554216490500,13.254490478515624,0.16249015927314758,-0.042760565876960754,0.06536258012056351
1790341554232937700,13.270937744140625,0.27000242471694946,0.07208210229873657,0.11850785464048386
1790341554249383000,13.2873828125,0.3799581825733185,-0.018325956538319588,0.07635815441608429
1790341554265830400,13.303830322265625,0.32131510972976685,0.05253441259264946,0.005497787147760391
1790341554282261200,13.32026123046875,0.23151792585849762,-0.018936822190880775,0.00366519158706069
1790341554298658600,13.336658447265625,0.18936823308467865,-0.014049900695681572,-0.0024434609804302454
1790341554315104800,13.353104736328126,0.13866640627384186,0.009162978269159794,-0.05864306539297104
1790341554331548200,13.369548095703125,0.09285151958465576,-0.02015855349600315,-0.01466076634824276
1790341554348051000,13.386051025390625,0.05803219974040985,-0.039095375686883926,0.022602014243602753
1790341554364505300,13.40250537109375,0.05497787147760391,0.018936822190880775,0.07024950534105301
1790341554380966400,13.41896630859375,0.04581489413976669,-0.03848451003432274,0.13255776464939117
1790341554397436200,13.435436279296875,0.08735372871160507,-0.06841690838336945,0.056810468435287476
1790341554413875500,13.45187548828125,0.1722639948129654,-0.07147123664617538,0.05803219974040985
1790341554430320000,13.468320068359375,0.1966986060142517,-0.018936822190880775,0.10323622822761536
1790341554446790700,13.484790771484375,0.18020524084568024,-0.005497787147760391,0.0555887371301651
1790341554463230500,13.50123046875,0.22479841113090515,-0.08552113175392151,-0.10323622822761536
1790341554479671300,13.51767138671875,0.251676470041275,-0.07147123664617538,-0.13927727937698364
1790341554496111400,13.534111328125,0.2742784917354584,-0.05803219974040985,-0.03176499158143997
1790341554512555300,13.55055517578125,0.3023782968521118,-0.06291911751031876,-0.028099801391363144
1790341554529002500,13.56700244140625,0.3591887652873993,-0.04214970022439957,-0.09162978827953339
1790341554545447700,13.58344775390625,0.46853363513946533,-0.17409659922122955,-0.10812314599752426
1790341554561894700,13.599894775390625,0.7098253965377808,-0.2535090744495392,-0.03481931984424591
1790341554578344000,13.616343994140625,1.0018190145492554,-0.15515977144241333,0.09224065393209457
1790341554594790400,13.632790283203125,1.0390818119049072,-0.13439035415649414,0.08918632566928864
1790341554611238700,13.64923876953125,0.9059131741523743,-0.08185594528913498,0.06536258012056351
1790341554627665400,13.66566552734375,0.6432411074638367,-0.05803219974040985,0.00855211354792118
1790341554644134700,13.682134765625,0.30543261766433716,0.02932153269648552,0.08552113175392151
1790341554660578600,13.69857861328125,-0.025656340643763542,-0.00733038317412138,0.12034045159816742
1790341554677020400,13.7150205078125,-0.0959058403968811,0.00366519158706069,0.10812314599752426
1790341554693493200,13.7314931640625,-0.07208210229873657,-0.1514945775270462,0.027488935738801956
1790341554709954600,13.74795458984375,-0.05192354694008827,-0.07635815441608429,0.05009094998240471
1790341554726437000,13.76443701171875,-0.05925392732024193,-0.17470745742321014,0.0555887371301651
1790341554742886700,13.78088671875,-0.13072516024112701,-0.08491026610136032,0.05497787147760391
1790341554759333600,13.797333740234375,-0.14538592100143433,-0.07452555745840073,0.018936822190880775
1790341554775811800,13.813811767578125,-0.1820378452539444,-0.03237585723400116,0.031154127791523933
1790341554792264700,13.8302646484375,-0.16859880089759827,0.016493361443281174,0.06352998316287994
1790341554808745200,13.8467451171875,-0.13561208546161652,-0.01771509274840355,0.1459967941045761
1790341554825193200,13.863193115234376,-0.054367005825042725,0.07696902006864548,0.24129177629947662
1790341554841667600,13.87966748046875,-0.03420845419168472,0.17959438264369965,0.3084869384765625
1790341554858119400,13.896119384765624,-0.05497787147760391,0.13561208546161652,0.4239404797554016
1790341554874567000,13.91256689453125,-0.06108652427792549,0.013439035043120384,0.5540547966957092
1790341554891036700,13.92903662109375,-0.00855211354792118,0.19303341209888458,0.6059783101081848
1790341554907484400,13.945484375,0.0403171069920063,0.1466076523065567,0.47708576917648315
1790341554923933000,13.961932861328124,0.02626720629632473,-0.0806342139840126,0.303600013256073
1790341554940435700,13.978435791015626,-0.022602014243602753,-0.15821409225463867,-0.10018189996480942
1790341554956878000,13.994878173828125,0.012217304669320583,0.030543262138962746,-0.3488040566444397
1790341554973268700,14.011268798828125,0.051312681287527084,0.0006108652451075613,-0.3988949954509735
1790341554989714700,14.027714599609375,0.028099801391363144,-0.01038470957428217,-0.21319197118282318
1790341555006165000,14.0441650390625,-0.009162978269159794,0.1313360333442688,-0.17104226350784302
1790341555022673000,14.0606728515625,-0.015882495790719986,-0.0354301854968071,0.04214970022439957
1790341555039163100,14.0771630859375,0.0024434609804302454,0.04581489413976669,0.04092797264456749
1790341555055590000,14.09358984375,0.00366519158706069,-0.06963863968849182,0.033597588539123535
1790341555072057600,14.1100576171875,-0.02871066704392433,0.0708603709936142,-0.1062905490398407
1790341555088534500,14.126534423828126,-0.01710422709584236,-0.06414084881544113,-0.18997909128665924
1790341555104980500,14.14298046875,-0.04398229718208313,-0.07819075137376785,-0.17470745742321014
1790341555121429800,14.1594296875,-0.004886921960860491,0.2174680233001709,-0.05742133408784866
1790341555137941200,14.175941162109375,-0.016493361443281174,-0.1716531366109848,0.11911872029304504
1790341555154385700,14.1923857421875,0.013439035043120384,0.09529497474431992,0.30604347586631775
1790341555170832400,14.208832275390625,0.05314527451992035,-0.024434609338641167,0.47830748558044434
1790341555187308300,14.225308349609374,0.01771509274840355,-0.1508837193250656,0.5473352670669556
1790341555203754000,14.24175390625,-0.04948008432984352,0.11911872029304504,0.6407976150512695
1790341555220198700,14.25819873046875,-0.018936822190880775,-0.2076941877603531,0.6261368989944458
1790341555236641800,14.274641845703124,0.018936822190880775,-0.02382374368607998,0.6407976150512695
1790341555253090800,14.2910908203125,0.02687807008624077,0.1362229436635971,0.5754350423812866
1790341555269539000,14.3075390625,0.03787364438176155,-0.19975294172763824,0.48258355259895325
1790341555285993000,14.323992919921874,0.0006108652451075613,-0.015271631069481373,0.37262779474258423
1790341555302383600,14.340383544921876,-0.021380282938480377,-0.036041051149368286,0.2370157092809677
1790341555318831900,14.356831787109375,-0.021991148591041565,0.039095375686883926,0.10751228034496307
1790341555335311000,14.37331103515625,0.0024434609804302454,-0.06291911751031876,0.025045474991202354
1790341555351801300,14.38980126953125,0.01710422709584236,-0.01466076634824276,-0.051312681287527084
1790341555368263700,14.406263671875,0.003054326167330146,0.04092797264456749,-0.11056660860776901
1790341555384734500,14.422734375,-0.03237585723400116,-0.021380282938480377,-0.08918632566928864
1790341555401210600,14.439210693359374,-0.01160643994808197,-0.02076941914856434,-0.07147123664617538
1790341555417725400,14.455725341796875,0,-0.048258353024721146,-0.039706241339445114
1790341555434242000,14.472241943359375,-0.007941247895359993,0.0959058403968811,-0.016493361443281174
1790341555450702600,14.48870263671875,-0.005497787147760391,-0.15027284622192383,-0.012828170321881771
1790341555467158000,14.505157958984375,-0.006719517521560192,0.01160643994808197,-0.03848451003432274
1790341555483632000,14.521632080078126,0.0555887371301651,-0.059864792972803116,-0.2681698501110077
1790341555500074800,14.53807470703125,0.07391469180583954,-0.09224065393209457,-0.3854559659957886
1790341555516521500,14.554521484375,0.07452555745840073,0.07941248267889023,-0.5595525503158569
1790341555532972800,14.570972900390625,0.05742133408784866,0.08124507963657379,-0.665232241153717
1790341555549420500,14.587420654296874,0.02626720629632473,-0.06719517707824707,-0.7128797173500061
1790341555565868800,14.603868896484375,0.015882495790719986,-0.07452555745840073,-0.749531626701355
1790341555582339600,14.620339599609375,0.006108652334660292,0.033597588539123535,-0.6896668672561646
1790341555598858200,14.636858154296876,0.006719517521560192,-0.11362093687057495,-0.5845980644226074
1790341555615301600,14.653301513671876,0.02321287989616394,-0.05314527451992035,-0.4337143301963806
1790341555631714300,14.66971435546875,-0.01038470957428217,-0.14905111491680145,-0.24678955972194672
1790341555648199200,14.68619921875,0.018936822190880775,-0.07635815441608429,-0.08491026610136032
1790341555664686800,14.702686767578125,0.02626720629632473,-0.0959058403968811,-0.010995574295520782
1790341555681203500,14.719203369140626,0.04886921867728233,-0.02321287989616394,0.051312681287527084
1790341555697666800,14.735666748046874,0.09285151958465576,0.07757988572120667,0.07880161702632904
1790341555714113500,14.752113525390625,0.06780604273080826,0.059864792972803116,0.08491026610136032
1790341555730559500,14.7685595703125,0.10506882518529892,0.12461651116609573,-0.2064724564552307
1790341555747005400,14.78500537109375,0.11850785464048386,-0.009773843921720982,-0.34147366881370544
1790341555763450600,14.80145068359375,0.16310101747512817,-0.13500121235847473,-0.44104471802711487
1790341555779898600,14.817898681640624,0.21563543379306793,-0.10934487730264664,-0.4245513379573822
1790341555796344000,14.834343994140625,0.22052235901355743,-0.005497787147760391,-0.3952298164367676
1790341555812793600,14.850793701171876,0.1313360333442688,0.059864792972803116,-0.3439171314239502
1790341555829243400,14.867243408203125,0.04642575979232788,0.14905111491680145,-0.28466320037841797
1790341555845693700,14.883693603515624,-0.15393804013729095,0.1313360333442688,-0.1765400618314743
1790341555862139600,14.9001396484375,-0.37629300355911255,0.11789698898792267,-0.08552113175392151
1790341555878611000,14.91661083984375,-0.5308418869972229,0.03481931984424591,0.03298672288656235
1790341555895057700,14.9330576171875,-0.608421802520752,0.0555887371301651,0.15271630883216858
1790341555911502300,14.94950244140625,-0.627358615398407,0.08246681094169617,0.192422553896904
1790341555927975400,14.965975341796875,-0.5705481171607971,0.03481931984424591,0.2272418737411499
1790341555944420000,14.982420166015626,-0.3995058834552765,0.059864792972803116,0.2620611786842346
1790341555960864300,14.9988642578125,-0.01160643994808197,0.045204028487205505,0.3029891550540924
1790341555977147100,15.015147216796874,0.006108652334660292,0.0012217304902151227,0.22907446324825287
1790341555993595000,15.031594970703125,-0.01710422709584236,-0.009773843921720982,0.17531833052635193
1790341556010042600,15.048042724609376,-0.004886921960860491,0.010995574295520782,0.09285151958465576
1790341556026535700,15.06453564453125,0.02015855349600315,-0.039706241339445114,0.005497787147760391
1790341556043004700,15.081004638671875,-0.0012217304902151227,0.025045474991202354,0
1790341556059443500,15.097443359375,0.00855211354792118,-0.015882495790719986,-0.003054326167330146
1790341556075927000,15.113927001953124,0.01038470957428217,-0.004886921960860491,0.03237585723400116
1790341556092382200,15.13038232421875,-0.014049900695681572,0.1514945775270462,-0.031154127791523933
1790341556108857600,15.146857666015626,-0.009162978269159794,0.15515977144241333,-0.029932396486401558
1790341556125262800,15.163262939453125,-0.021380282938480377,-0.06719517707824707,0.01466076634824276
1790341556141708500,15.17970849609375,-0.03237585723400116,0.09773843735456467,-0.11362093687057495
1790341556158159000,15.1961591796875,0.01038470957428217,0.01771509274840355,0.12889257073402405
1790341556174667300,15.212667236328125,-0.0403171069920063,0.10384709388017654,-0.02871066704392433
1790341556191114200,15.2291142578125,-0.010995574295520782,-0.03726277872920036,0.09285151958465576
1790341556207589600,15.245589599609374,-0.0012217304902151227,0.10323622822761536,0.10384709388017654
1790341556224040400,15.26204052734375,0.10323622822761536,0.06475171446800232,-0.09834930300712585
1790341556240493600,15.27849365234375,-0.019547687843441963,-0.0708603709936142,-0.2125810980796814
1790341556256970800,15.294970703125,0.014049900695681572,0.15393804013729095,-0.0012217304902151227
1790341556273424000,15.311423828125,-0.01038470957428217,-0.2028072625398636,-0.06658431142568588
1790341556289898000,15.32789794921875,0.05375614017248154,-0.10323622822761536,-0.0403171069920063
1790341556306345000,15.344344970703125,-0.03237585723400116,0.1765400618314743,-0.036651913076639175
1790341556322806300,15.36080615234375,-0.05253441259264946,-0.12095131725072861,-0.13255776464939117
1790341556339253500,15.37725341796875,-0.001832595793530345,0.11850785464048386,-0.15332718193531036
1790341556355701800,15.39370166015625,-0.02626720629632473,0.051312681287527084,-0.13805554807186127
1790341556372167400,15.41016748046875,0.03176499158143997,-0.1466076523065567,-0.04581489413976669
1790341556388617000,15.426616943359376,-0.045204028487205505,0.1771509200334549,-0.03787364438176155
1790341556405069000,15.443069091796875,-0.003054326167330146,0.07147123664617538,-0.05009094998240471
1790341556421559300,15.459559326171876,-0.018936822190880775,0.07513642311096191,-0.14966198801994324
1790341556438007800,15.4760078125,-0.04459316283464432,-0.05864306539297104,-0.192422553896904
1790341556454458400,15.492458251953124,-0.07269296050071716,-0.024434609338641167,-0.2926044464111328
1790341556470901000,15.50890087890625,0.031154127791523933,-0.23579397797584534,0.13866640627384186
1790341556487350300,15.525350341796875,-0.02687807008624077,0.07452555745840073,0.10384709388017654
1790341556503797800,15.5417978515625,-0.04642575979232788,0.2480112910270691,0.09346238523721695
1790341556520252200,15.558252197265626,0.02871066704392433,-0.3781255781650543,0.13072516024112701
1790341556536751000,15.574751220703124,0.07208210229873657,0.8197811841964722,-0.17776179313659668
1790341556553201400,15.591201416015625,-0.15332718193531036,-0.0910189226269722,-0.41661009192466736
1790341556569680600,15.6076806640625,0.05864306539297104,-0.18081611394882202,-0.2028072625398636
1790341556586128400,15.62412841796875,0.03481931984424591,-0.22602014243602753,-0.11545353382825851
1790341556602505000,15.6405048828125,-0.021380282938480377,0.242513507604599,0.21013765037059784
1790341556618969600,15.656969482421875,-0.021991148591041565,-0.015882495790719986,0.21502456068992615
1790341556635422000,15.673421875,0.004886921960860491,0.20036379992961884,0.20952677726745605
1790341556651805700,15.6898056640625,-0.03726277872920036,0.006108652334660292,0.12339477986097336
1790341556668284200,15.7062841796875,0.05314527451992035,-0.08307767659425735,0.039706241339445114
1790341556684749800,15.722749755859375,-0.04214970022439957,0.09957103431224823,-0.0757472887635231
1790341556701222700,15.73922265625,0.012828170321881771,-0.05314527451992035,-0.01160643994808197
1790341556717719800,15.7557197265625,0.01771509274840355,-0.09285151958465576,0.10690141469240189
1790341556734166300,15.772166259765624,-0.02626720629632473,0.15943582355976105,0.12095131725072861
1790341556750611000,15.78861083984375,0.010995574295520782,-0.015882495790719986,0.15454891324043274
1790341556767059000,15.805058837890625,-0.006108652334660292,-0.05375614017248154,0.1014036312699318
1790341556783548200,15.821548095703125,-0.005497787147760391,0.02382374368607998,0.007941247895359993
1790341556800043500,15.83804345703125,0.014049900695681572,-0.014049900695681572,-0.007941247895359993
1790341556816525600,15.854525634765626,-0.010995574295520782,0.04153883829712868,0.00733038317412138
1790341556833013200,15.87101318359375,0.004886921960860491,0.06841690838336945,0.021991148591041565
1790341556849489200,15.8874892578125,0.00733038317412138,0.00427605677396059,0.08124507963657379
1790341556865967900,15.9039677734375,-0.01038470957428217,0.018325956538319588,0.0507018156349659
1790341556882463000,15.920462890625,0.0024434609804302454,0.08124507963657379,0.013439035043120384
1790341556898942700,15.936942626953124,-0.001832595793530345,-0.01771509274840355,-0.010995574295520782
1790341556915459600,15.95345947265625,-0.001832595793530345,-0.021991148591041565,-0.025656340643763542
1790341556931946200,15.9699462890625,0.001832595793530345,0.01160643994808197,-0.013439035043120384
1790341556948413200,15.9864130859375,-0.0024434609804302454,-0.029932396486401558,0.006108652334660292
1790341556964874200,16.002874267578125,-0.01466076634824276,-0.006108652334660292,-0.021380282938480377
1790341556981416200,16.019416259765624,0.0006108652451075613,-0.01038470957428217,-0.00427605677396059
1790341556997905700,16.03590576171875,-0.0006108652451075613,-0.0012217304902151227,-0.0403171069920063
1790341557014397000,16.05239697265625,0.010995574295520782,0.036041051149368286,-0.04459316283464432
1790341557030861800,16.06886181640625,-0.00733038317412138,0.08185594528913498,-0.039095375686883926
1790341557047354000,16.08535400390625,0.0006108652451075613,-0.016493361443281174,-0.014049900695681572
1790341557063802000,16.101802001953125,0.00733038317412138,0.0354301854968071,-0.031154127791523933
1790341557080248000,16.118248046875,-0.007941247895359993,0.08491026610136032,-0.012828170321881771
1790341557096762600,16.1347626953125,-0.004886921960860491,-0.11056660860776901,-0.030543262138962746
1790341557113244200,16.151244140625,0.00733038317412138,-0.03787364438176155,-0.024434609338641167
1790341557129740300,16.167740234375,0,-0.022602014243602753,-0.021991148591041565
1790341557146256100,16.184256103515626,0.014049900695681572,-0.02687807008624077,-0.016493361443281174
1790341557162775000,16.200775146484375,-0.015882495790719986,0.03237585723400116,-0.021991148591041565
1790341557179260200,16.21726025390625,-0.004886921960860491,-0.022602014243602753,-0.019547687843441963
1790341557195760000,16.233760009765625,0.009773843921720982,-0.08857546001672745,-0.02076941914856434
1790341557212220200,16.25022021484375,-0.016493361443281174,-0.00366519158706069,-0.042760565876960754
1790341557228735200,16.2667353515625,0.005497787147760391,-0.022602014243602753,-0.00366519158706069
1790341557245222700,16.28322265625,0.00855211354792118,-0.021380282938480377,-0.018325956538319588
1790341557261715500,16.299715576171874,0.004886921960860491,0.0403171069920063,-0.01038470957428217
1790341557278214000,16.3162138671875,-0.02321287989616394,-0.022602014243602753,-0.022602014243602753
1790341557294673700,16.332673583984374,0,-0.07513642311096191,-0.045204028487205505
1790341557311200000,16.349199951171876,-0.0024434609804302454,-0.04214970022439957,-0.00427605677396059
1790341557327732500,16.365732421875,-0.0006108652451075613,0.006719517521560192,0.024434609338641167
1790341557344214800,16.38221484375,0.01466076634824276,-0.025656340643763542,0.05009094998240471
1790341557360685600,16.398685546875,0.0006108652451075613,-0.06169738993048668,-0.01466076634824276
1790341557377161000,16.415160888671874,0.012828170321881771,0.04092797264456749,-0.04092797264456749
1790341557393668400,16.43166845703125,-0.013439035043120384,0.03176499158143997,-0.054367005825042725
1790341557410151200,16.448151123046873,0.012217304669320583,0.004886921960860491,0
1790341557426607000,16.464607177734376,-0.009162978269159794,0.09162978827953339,0.027488935738801956
1790341557443063300,16.481063232421874,-0.01160643994808197,0.036041051149368286,-0.018325956538319588
1790341557459525000,16.497525146484374,0.022602014243602753,-0.02687807008624077,-0.018325956538319588
1790341557476033300,16.514033203125,-0.030543262138962746,0.039706241339445114,-0.048258353024721146
1790341557492521500,16.530521484375,0.039706241339445114,-0.08002334833145142,-0.014049900695681572
1790341557509004500,16.547004638671876,-0.01160643994808197,0.11056660860776901,0.006108652334660292
1790341557525491200,16.5634912109375,-0.01771509274840355,-0.00733038317412138,-0.0354301854968071
1790341557541986000,16.579986083984377,0.005497787147760391,-0.10201449692249298,0.009162978269159794
1790341557558478000,16.59647802734375,-0.021380282938480377,0.05803219974040985,-0.04764748737215996
1790341557574967800,16.6129677734375,0.025045474991202354,-0.012217304669320583,0.006108652334660292
1790341557591459000,16.629458984375,-0.015271631069481373,0.06108652427792549,-0.009773843921720982
1790341557608011300,16.64601123046875,0.00427605677396059,0.0006108652451075613,0
1790341557624509200,16.66250927734375,-0.009773843921720982,0.01038470957428217,0.009162978269159794
1790341557641027000,16.679027099609375,0.00366519158706069,-0.010995574295520782,0.02687807008624077
1790341557657494800,16.695494873046876,-0.02871066704392433,0.0012217304902151227,-0.024434609338641167
1790341557673981400,16.7119814453125,0.001832595793530345,-0.13927727937698364,-0.03481931984424591
1790341557690439400,16.728439453125,-0.00427605677396059,-0.08002334833145142,-0.03726277872920036
1790341557706935800,16.744935791015624,0.0006108652451075613,-0.014049900695681572,0.0403171069920063
1790341557723438800,16.76143896484375,0.009773843921720982,-0.022602014243602753,0.04764748737215996
1790341557739927800,16.777927734375,0.006108652334660292,0.029932396486401558,0.0708603709936142
1790341557756416300,16.794416259765626,-0.006108652334660292,-0.0024434609804302454,-0.022602014243602753
1790341557772917800,16.810917724609375,0.021380282938480377,0.04398229718208313,-0.025045474991202354
1790341557789411600,16.82741162109375,0.01710422709584236,-0.029932396486401558,-0.00855211354792118
1790341557805929000,16.843928955078123,0.006108652334660292,0.012828170321881771,0
1790341557822381300,16.86038134765625,-0.0012217304902151227,-0.0959058403968811,0.031154127791523933
1790341557838865400,16.876865478515626,0.022602014243602753,-0.04337143152952194,0.018325956538319588
1790341557855389700,16.8933896484375,-0.01038470957428217,0.05497787147760391,0.0024434609804302454
1790341557871880700,16.909880615234375,-0.006108652334660292,-0.024434609338641167,-0.03298672288656235
1790341557888359700,16.926359619140626,0.004886921960860491,-0.019547687843441963,0.012828170321881771
1790341557904875300,16.942875244140627,-0.01038470957428217,-0.059864792972803116,-0.01038470957428217
1790341557921357600,16.959357666015624,0.014049900695681572,-0.02687807008624077,-0.02321287989616394
1790341557937818000,16.975818115234375,0.00855211354792118,-0.028099801391363144,-0.0024434609804302454
1790341557954308400,16.992308349609374,-0.00733038317412138,0.00733038317412138,0.019547687843441963
1790341557970774000,17.00877392578125,0.013439035043120384,0.06475171446800232,0.006719517521560192
1790341557987257600,17.025257568359375,-0.01710422709584236,0.06963863968849182,-0.015882495790719986
1790341558003750100,17.041750244140626,-0.0024434609804302454,-0.03726277872920036,-0.009773843921720982
1790341558020251000,17.0582509765625,0.0024434609804302454,-0.033597588539123535,-0.0024434609804302454
1790341558036744400,17.074744384765626,-0.006108652334660292,-0.0861319974064827,-0.016493361443281174
1790341558053226500,17.0912265625,0.006108652334660292,-0.0006108652451075613,-0.00366519158706069
1790341558069710600,17.107710693359376,0.0024434609804302454,0.02382374368607998,-0.001832595793530345
1790341558086167600,17.12416748046875,-0.00366519158706069,-0.05925392732024193,0.006108652334660292
1790341558102698000,17.140697998046875,-0.0006108652451075613,0.009162978269159794,-0.016493361443281174
1790341558119190800,17.157190673828126,-0.0024434609804302454,-0.039095375686883926,-0.005497787147760391
1790341558135704000,17.1737041015625,-0.0024434609804302454,-0.04642575979232788,0.01466076634824276
1790341558152224500,17.190224609375,0.01160643994808197,0.00855211354792118,0.012217304669320583
1790341558168712200,17.206712158203125,0.00855211354792118,0.07024950534105301,0.004886921960860491
1790341558185168000,17.22316796875,-0.00733038317412138,0.028099801391363144,-0.016493361443281174
1790341558201661000,17.239660888671875,-0.001832595793530345,0.031154127791523933,0.0006108652451075613
1790341558218140400,17.256140380859375,0.006719517521560192,-0.07269296050071716,-0.012217304669320583
1790341558234591700,17.272591796875,0.007941247895359993,-0.02015855349600315,-0.009162978269159794
1790341558251079700,17.28907958984375,-0.01466076634824276,0.07819075137376785,-0.003054326167330146
1790341558267580000,17.305579833984375,0.00733038317412138,-0.042760565876960754,0.03176499158143997
1790341558284076000,17.322075927734375,-0.0024434609804302454,0.045204028487205505,0.0024434609804302454
1790341558300590600,17.338590576171875,-0.005497787147760391,-0.02015855349600315,-0.015882495790719986
1790341558317038800,17.355038818359375,0.015271631069481373,-0.02932153269648552,-0.006108652334660292
1790341558333560300,17.371560302734373,-0.0012217304902151227,0.04459316283464432,-0.01466076634824276
1790341558350050000,17.388050048828124,0.0024434609804302454,0.036041051149368286,0.028099801391363144
1790341558366547200,17.404547119140624,-0.009773843921720982,0.05314527451992035,0.003054326167330146
1790341558383062300,17.421062255859376,0.01710422709584236,-0.059864792972803116,0.01160643994808197
1790341558399546000,17.437546142578125,-0.022602014243602753,0.03420845419168472,-0.01771509274840355
1790341558416029200,17.454029296875,0.013439035043120384,-0.0555887371301651,0.00733038317412138
1790341558432528600,17.470528564453126,-0.01771509274840355,-0.030543262138962746,-0.005497787147760391
1790341558449023700,17.487023681640625,-0.010995574295520782,-0.024434609338641167,0.025656340643763542
1790341558465539000,17.5035390625,-0.00427605677396059,0.05253441259264946,0.04153883829712868
1790341558481992000,17.519991943359376,-0.003054326167330146,-0.0354301854968071,0.01160643994808197
1790341558498482700,17.536482666015626,-0.003054326167330146,0.0354301854968071,-0.003054326167330146
1790341558514997500,17.55299755859375,0.003054326167330146,0,-0.004886921960860491
1790341558531457800,17.569457763671874,-0.004886921960860491,0.03726277872920036,-0.014049900695681572
1790341558547939800,17.58593994140625,-0.001832595793530345,0.02321287989616394,0.018936822190880775
1790341558564395500,17.6023955078125,-0.01160643994808197,-0.060475658625364304,-0.00733038317412138
1790341558580880400,17.61888037109375,0.01771509274840355,-0.006108652334660292,0.03176499158143997
1790341558597404400,17.635404296875,-0.007941247895359993,-0.0354301854968071,-0.00427605677396059
1790341558613897500,17.6518974609375,-0.001832595793530345,0.01710422709584236,-0.00855211354792118
1790341558630411300,17.668411376953124,-0.009773843921720982,0.02321287989616394,-0.028099801391363144
1790341558646931700,17.684931640625,0.022602014243602753,-0.04642575979232788,0.006108652334660292
1790341558663421000,17.7014208984375,-0.01771509274840355,0.001832595793530345,0.028099801391363144
1790341558679849700,17.717849609375,-0.001832595793530345,-0.04581489413976669,0.022602014243602753
1790341558696347100,17.73434716796875,0.01160643994808197,0.007941247895359993,0.006108652334660292
1790341558712829700,17.75082958984375,0.0006108652451075613,0.01466076634824276,-0.04459316283464432
1790341558729284600,17.76728466796875,0,0.03787364438176155,0.004886921960860491
1790341558745778700,17.78377880859375,-0.021991148591041565,-0.0507018156349659,0.014049900695681572
1790341558762247000,17.800246826171875,0.010995574295520782,-0.08002334833145142,0.003054326167330146
1790341558778686700,17.816686767578126,0.01466076634824276,-0.05314527451992035,0.006719517521560192
1790341558795198000,17.833197998046874,-0.006108652334660292,-0.001832595793530345,-0.009162978269159794
1790341558811683000,17.84968310546875,-0.0024434609804302454,0.006108652334660292,-0.006108652334660292
1790341558828171300,17.866171142578125,0.00427605677396059,0.00427605677396059,-0.005497787147760391
1790341558844684300,17.882684326171876,0.00855211354792118,-0.013439035043120384,0.021991148591041565
1790341558861179000,17.899178955078124,-0.00855211354792118,0,-0.028099801391363144
1790341558877697800,17.91569775390625,0.02015855349600315,0.06169738993048668,-0.02626720629632473
1790341558894188000,17.93218798828125,-0.007941247895359993,0.05497787147760391,-0.028099801391363144
1790341558910679000,17.948678955078126,0.01038470957428217,-0.04703662544488907,0.014049900695681572
1790341558927184000,17.965183837890624,-0.018936822190880775,0.005497787147760391,-0.02076941914856434
1790341558943649000,17.98164892578125,0.00855211354792118,-0.08307767659425735,-0.039706241339445114
1790341558960151300,17.9981513671875,0.00427605677396059,-0.02871066704392433,-0.012828170321881771
1790341558976604200,18.014604248046876,0.006719517521560192,0.06230825558304787,-0.019547687843441963
1790341558993098200,18.03109814453125,0.02382374368607998,0.031154127791523933,-0.02321287989616394
1790341559009540000,18.0475400390625,0.001832595793530345,0.05497787147760391,-0.013439035043120384
1790341559026037000,18.064037109375,-0.001832595793530345,0.03420845419168472,-0.009773843921720982
1790341559042553300,18.08055322265625,0.013439035043120384,-0.01710422709584236,-0.006719517521560192
1790341559058980600,18.096980712890623,0.01466076634824276,0.04153883829712868,0.00427605677396059
1790341559075468000,18.113468017578125,-0.006108652334660292,0.08979719132184982,-0.003054326167330146
1790341559091971300,18.129971435546874,0.00733038317412138,-0.030543262138962746,-0.03237585723400116
1790341559108438000,18.14643798828125,0.01466076634824276,0.025656340643763542,0.0024434609804302454
1790341559124960300,18.162960205078125,-0.007941247895359993,0.00427605677396059,0.01038470957428217
1790341559141449500,18.179449462890624,0.007941247895359993,-0.10567969083786011,0
1790341559157919700,18.195919677734373,0.01038470957428217,0.009773843921720982,-0.009773843921720982
1790341559174423300,18.21242333984375,-0.001832595793530345,0.004886921960860491,-0.021991148591041565
1790341559190919200,18.228919189453126,0.0024434609804302454,-0.036651913076639175,-0.009162978269159794
1790341559207437300,18.245437255859375,0.005497787147760391,-0.04459316283464432,0.025656340643763542
1790341559223923500,18.26192333984375,-0.0012217304902151227,-0.015882495790719986,0.01771509274840355
1790341559240422700,18.278422607421874,0.012828170321881771,-0.03726277872920036,0.00366519158706069
1790341559256928800,18.2949287109375,-0.0006108652451075613,0.004886921960860491,-0.014049900695681572
1790341559273427700,18.311427734375,-0.013439035043120384,0.06780604273080826,-0.00427605677396059
1790341559289950000,18.327949951171874,0.021991148591041565,-0.05375614017248154,0.04337143152952194
1790341559306442200,18.344442138671877,-0.010995574295520782,-0.012217304669320583,0.0024434609804302454
1790341559322926300,18.36092626953125,0.009773843921720982,0.04886921867728233,-0.11728613078594208
1790341559339411500,18.377411376953123,0.01466076634824276,0.04459316283464432,-0.2968805134296417
1790341559355890000,18.393889892578127,-0.01771509274840355,0.039095375686883926,-0.24068090319633484
1790341559372334800,18.4103349609375,0.016493361443281174,0.009162978269159794,-0.455705463886261
1790341559388841700,18.426841796875,0.018936822190880775,-0.28955012559890747,-1.5638149976730347
1790341559405286400,18.443286376953125,0.04764748737215996,-0.07513642311096191,-1.483791708946228
1790341559421734000,18.45973388671875,0.025045474991202354,0.03481931984424591,-0.5845980644226074
1790341559438177500,18.476177490234374,-0.03298672288656235,-0.059864792972803116,0.3072652220726013
1790341559454621000,18.492620849609374,0.03848451003432274,0.005497787147760391,0.5632177591323853
1790341559471066400,18.50906640625,0.009773843921720982,0.00855211354792118,0.6572909951210022
1790341559487515000,18.525514892578126,0.036651913076639175,0.059864792972803116,0.6291912198066711
1790341559503991300,18.5419912109375,0.022602014243602753,0.16859880089759827,0.6902777552604675
1790341559520435700,18.558435791015626,0.006719517521560192,0.1417207419872284,0.42271876335144043
1790341559536901600,18.574901611328126,-0.001832595793530345,0.10873401165008545,0.13011430203914642
1790341559553377800,18.591377685546874,-0.015882495790719986,-0.014049900695681572,-0.015271631069481373
1790341559569867000,18.607866943359376,-0.009773843921720982,0.001832595793530345,-0.056810468435287476
1790341559586353700,18.624353759765626,0.006719517521560192,0.06780604273080826,-0.12278391420841217
1790341559602800400,18.64080029296875,-0.019547687843441963,0.00855211354792118,-0.17043140530586243
1790341559619286800,18.657286865234376,-0.013439035043120384,0.02687807008624077,-0.19792033731937408
1790341559635760000,18.673760009765626,-0.01160643994808197,-0.0403171069920063,-0.14782938361167908
1790341559652207400,18.690207275390627,-0.018325956538319588,0.01160643994808197,-0.0959058403968811
1790341559668679200,18.70667919921875,0.018325956538319588,0.03176499158143997,0.033597588539123535
1790341559685097500,18.723097412109375,0.022602014243602753,0.09834930300712585,0.22602014243602753
1790341559701545000,18.739544921875,0.005497787147760391,0.07635815441608429,0.29138273000717163
1790341559718018300,18.756018310546875,0.016493361443281174,0.031154127791523933,0.20952677726745605
1790341559734468400,18.77246826171875,0.012217304669320583,0.1264491081237793,0.2681698501110077
1790341559750941200,18.788941162109374,-0.02015855349600315,0.00366519158706069,0.1820378452539444
1790341559767385000,18.805385009765626,0.01466076634824276,0.021380282938480377,0.001832595793530345
1790341559783868400,18.821868408203127,0.00366519158706069,0.04459316283464432,-0.012217304669320583
1790341559800358400,18.8383583984375,0.01710422709584236,0.033597588539123535,0.036041051149368286
1790341559816846800,18.854846923828124,0.005497787147760391,0.054367005825042725,0.04398229718208313
1790341559833342000,18.871342041015627,0.005497787147760391,-0.056810468435287476,-0.001832595793530345
1790341559849835800,18.887835693359374,0.019547687843441963,0.025656340643763542,0.04398229718208313
1790341559866351600,18.9043515625,0.009773843921720982,-0.006719517521560192,0.033597588539123535
1790341559882837000,18.9208369140625,0.014049900695681572,0.042760565876960754,0.01038470957428217
1790341559899334700,18.937334716796876,0.00366519158706069,0.02076941914856434,-0.003054326167330146
1790341559915843300,18.95384326171875,0.009162978269159794,-0.06108652427792549,-0.01710422709584236
1790341559932348200,18.97034814453125,0.025045474991202354,0.036651913076639175,0.007941247895359993
1790341559948835600,18.986835693359374,-0.006108652334660292,-0.018936822190880775,-0.007941247895359993
1790341559965324800,19.00332470703125,0.009773843921720982,-0.02626720629632473,0.013439035043120384
1790341559981797000,19.019797119140627,0.02626720629632473,-0.048258353024721146,0.18936823308467865
1790341559998247400,19.036247314453124,0.02321287989616394,-0.010995574295520782,0.2718350291252136
1790341560014697000,19.052697021484374,0.001832595793530345,-0.045204028487205505,0.10690141469240189
1790341560031167500,19.06916748046875,0.018325956538319588,0.09834930300712585,-0.009773843921720982
1790341560047608800,19.08560888671875,-0.0006108652451075613,0.1014036312699318,-0.17287486791610718
1790341560063968800,19.10196875,0.019547687843441963,-0.01160643994808197,-0.13744467496871948
1790341560080445000,19.11844482421875,-0.005497787147760391,-0.03298672288656235,-0.024434609338641167
1790341560096928000,19.134927978515623,-0.006108652334660292,0.04886921867728233,0.0861319974064827
1790341560113376000,19.1513759765625,0.03237585723400116,-0.033597588539123535,0.11484266817569733
1790341560129914000,19.1679140625,0.010995574295520782,0.009162978269159794,0.01466076634824276
1790341560146406700,19.18440673828125,0.031154127791523933,0.04703662544488907,-0.051312681287527084
1790341560162911500,19.200911376953126,0.01710422709584236,-0.01710422709584236,-0.0555887371301651
1790341560179409000,19.217408935546874,0.010995574295520782,-0.05742133408784866,-0.02871066704392433
1790341560195926500,19.233926513671875,0.02687807008624077,0.0708603709936142,0.03176499158143997
1790341560212418300,19.250418212890626,0.009162978269159794,-0.015271631069481373,0.02382374368607998
1790341560228915500,19.26691552734375,0.028099801391363144,-0.054367005825042725,0.0006108652451075613
1790341560245420800,19.2834208984375,0.009773843921720982,0.01710422709584236,-0.06475171446800232
1790341560261918000,19.29991796875,0.024434609338641167,-0.06963863968849182,-0.036041051149368286
1790341560278435800,19.316435791015625,0.010995574295520782,0.013439035043120384,0.00366519158706069
1790341560294925300,19.33292529296875,0.006108652334660292,0.004886921960860491,0.0006108652451075613
1790341560311414500,19.34941455078125,0.03848451003432274,0.045204028487205505,0.012828170321881771
1790341560327943200,19.365943115234376,-0.00427605677396059,0.05803219974040985,-0.00427605677396059
1790341560344438000,19.38243798828125,0.04153883829712868,0.042760565876960754,-0.004886921960860491
1790341560360888600,19.398888671875,0.009162978269159794,0.04337143152952194,-0.012828170321881771
1790341560377406500,19.415406494140626,0.03298672288656235,0.04459316283464432,-0.012217304669320583
1790341560393895000,19.43189501953125,0.025045474991202354,0.00855211354792118,-0.003054326167330146
1790341560410396000,19.44839599609375,0.031154127791523933,0.01038470957428217,-0.02626720629632473
1790341560426892500,19.464892578125,0.04642575979232788,0.04581489413976669,-0.014049900695681572
1790341560443406800,19.48140673828125,0.01160643994808197,0.019547687843441963,-0.007941247895359993
1790341560459895000,19.49789501953125,0.06169738993048668,-0.015882495790719986,-0.013439035043120384
1790341560476390400,19.514390380859375,0.012217304669320583,0.00855211354792118,-0.02382374368607998
1790341560492893400,19.5308935546875,0.05925392732024193,-0.022602014243602753,-0.009773843921720982
1790341560509390800,19.547390869140624,0.03726277872920036,-0.04092797264456749,0.00855211354792118
1790341560525875500,19.56387548828125,0.04581489413976669,0.04886921867728233,-0.003054326167330146
1790341560542366700,19.58036669921875,0.045204028487205505,0.021991148591041565,0.018325956538319588
1790341560558831400,19.596831298828125,0.021380282938480377,-0.012828170321881771,0.01710422709584236
1790341560575361500,19.613361572265624,0.06658431142568588,-0.03726277872920036,0.012828170321881771
1790341560591859200,19.629859130859376,0.033597588539123535,-0.028099801391363144,0.006108652334660292
1790341560608373800,19.646373779296876,0.042760565876960754,0.007941247895359993,-0.0024434609804302454
1790341560624909300,19.662909423828125,0.04642575979232788,0.01466076634824276,0.009773843921720982
1790341560641397000,19.67939697265625,0.031154127791523933,0.00733038317412138,0.00733038317412138
1790341560657898800,19.695898681640625,0.05742133408784866,-0.016493361443281174,0.01710422709584236
1790341560674396000,19.71239599609375,0.02871066704392433,0.03298672288656235,-0.003054326167330146
1790341560690876200,19.728876220703125,0.0507018156349659,-0.006108652334660292,-0.012217304669320583
1790341560707315500,19.7453154296875,0.0403171069920063,0.0006108652451075613,0.0012217304902151227
1790341560723816700,19.761816650390625,0.04153883829712868,0.02932153269648552,0.01038470957428217
1790341560740323800,19.77832373046875,0.05619960278272629,0.01160643994808197,-0.01710422709584236
1790341560756826000,19.794826171875,0.05619960278272629,-0.005497787147760391,0.009162978269159794
1790341560773337900,19.811337890625,0.0354301854968071,0.00427605677396059,0.01038470957428217
1790341560789828000,19.827828125,0.08246681094169617,-0.021380282938480377,0.015271631069481373
1790341560806317300,19.8443173828125,0.013439035043120384,0.04886921867728233,0.005497787147760391
1790341560822844400,19.860844482421875,0.06963863968849182,0.018936822190880775,0.006719517521560192
1790341560839338200,19.877338134765626,0.05497787147760391,0.03848451003432274,-0.00733038317412138
1790341560855855000,19.893855224609375,0.05375614017248154,0.030543262138962746,0.006108652334660292
1790341560872340000,19.910340087890624,0.04398229718208313,-0.00733038317412138,0.01710422709584236
1790341560888803800,19.926803955078125,0.08918632566928864,-0.01771509274840355,0.014049900695681572
1790341560905302800,19.943302734375,0.045204028487205505,0.029932396486401558,-0.016493361443281174
1790341560921764400,19.959764404296877,0.06291911751031876,-0.024434609338641167,-0.00366519158706069
1790341560938281000,19.976281005859374,0.06536258012056351,-0.01466076634824276,0.001832595793530345
1790341560954772000,19.99277197265625,0.048258353024721146,0.02932153269648552,0.009773843921720982
1790341560971268400,20.009268310546876,0.04764748737215996,0.00366519158706069,0.016493361443281174
1790341560987771100,20.025771240234373,0.07269296050071716,-0.04214970022439957,-0.003054326167330146
1790341561004267800,20.042267822265625,0.0555887371301651,-0.005497787147760391,-0.02626720629632473
1790341561020752600,20.058752685546875,0.04459316283464432,0.03298672288656235,0.009162978269159794
1790341561037147600,20.075147705078123,0.0757472887635231,-0.001832595793530345,-0.004886921960860491
1790341561053638700,20.091638671875,0.036041051149368286,0.01710422709584236,0.009773843921720982
1790341561070116900,20.108116943359374,0.05864306539297104,-0.021380282938480377,-0.003054326167330146
