time,seconds_elapsed,z,y,x
1790341541088748800,0.126748779296875,0.20341812074184418,-0.17776179313659668,-0.24434609711170197
1790341541105217300,0.14321728515625,0.1869247704744339,-0.19792033731937408,-0.18020524084568024
1790341541121658000,0.159658203125,0.18325957655906677,-0.1820378452539444,-0.13561208546161652
1790341541138126000,0.1761259765625,0.1569923609495163,-0.10323622822761536,-0.10201449692249298
1790341541154620000,0.192619873046875,0.1264491081237793,0.06536258012056351,-0.045204028487205505
1790341541171089700,0.209089599609375,0.09162978827953339,0.20952677726745605,0.025045474991202354
1790341541187587600,0.225587646484375,0.03176499158143997,0.26450464129447937,0.11789698898792267
1790341541204061000,0.24206103515625,-0.019547687843441963,0.27550023794174194,0.2028072625398636
1790341541220532000,0.258531982421875,-0.013439035043120384,0.2064724564552307,0.24862214922904968
1790341541237031400,0.275031494140625,0.04459316283464432,0.10812314599752426,0.25961771607398987
1790341541253503200,0.291503173828125,0.09712757170200348,0.05009094998240471,0.2217440903186798
1790341541269927000,0.307927001953125,0.14049901068210602,-0.004886921960860491,0.12767083942890167
1790341541286395100,0.32439501953125,0.14538592100143433,-0.0757472887635231,0.01771509274840355
1790341541302860800,0.34086083984375,0.10873401165008545,-0.15393804013729095,-0.05742133408784866
1790341541319298800,0.357298828125,0.07391469180583954,-0.18081611394882202,-0.05925392732024193
1790341541335762400,0.373762451171875,0.07147123664617538,-0.13866640627384186,-0.00427605677396059
1790341541352251600,0.390251708984375,0.10934487730264664,-0.07513642311096191,0.05192354694008827
1790341541368743200,0.4067431640625,0.1771509200334549,-0.05497787147760391,0.07696902006864548
1790341541385204700,0.423204833984375,0.26083946228027344,-0.018936822190880775,0.07757988572120667
1790341541401695200,0.4396953125,0.3182607889175415,0.04459316283464432,0.06719517707824707
1790341541418093600,0.456093505859375,0.32498031854629517,0.024434609338641167,0.031154127791523933
1790341541434583300,0.472583251953125,0.2669481039047241,-0.03176499158143997,-0.015882495790719986
1790341541451042800,0.489042724609375,0.2070833146572113,-0.045204028487205505,-0.04398229718208313
1790341541467505000,0.5055048828125,0.15393804013729095,-0.1411098688840866,-0.04948008432984352
1790341541483991800,0.52199169921875,0.11423180252313614,-0.1062905490398407,-0.048258353024721146
1790341541500452600,0.53845263671875,0.10201449692249298,-0.014049900695681572,-0.05803219974040985
1790341541516957000,0.55495703125,0.13561208546161652,-0.00733038317412138,-0.06108652427792549
1790341541533417700,0.571417724609375,0.1973094791173935,-0.02382374368607998,-0.0555887371301651
1790341541549879300,0.58787939453125,0.2919935882091522,-0.0757472887635231,-0.04703662544488907
1790341541566398200,0.604398193359375,0.3995058834552765,-0.07635815441608429,-0.03787364438176155
1790341541582860000,0.620860107421875,0.46303585171699524,-0.12950342893600464,-0.048258353024721146
1790341541599354000,0.63735400390625,0.47830748558044434,-0.1563815027475357,-0.051312681287527084
1790341541615841500,0.653841552734375,0.46181413531303406,-0.21502456068992615,-0.05925392732024193
1790341541632302000,0.670302001953125,0.44776421785354614,-0.20586158335208893,-0.04092797264456749
1790341541648791000,0.686791015625,0.46242499351501465,-0.09957103431224823,-0.02015855349600315
1790341541665249000,0.7032490234375,0.45265114307403564,0.02871066704392433,-0.04459316283464432
1790341541681741000,0.719740966796875,0.40072759985923767,0.12461651116609573,-0.11789698898792267
1790341541698203000,0.736202880859375,0.384845107793808,0.12400564551353455,-0.21930062770843506
1790341541714663000,0.752662841796875,0.4001167416572571,0.12095131725072861,-0.2773328125476837
1790341541731123200,0.769123291015625,0.4300491213798523,0.15454891324043274,-0.2583959996700287
1790341541747581200,0.785581298828125,0.4355469346046448,0.27000242471694946,-0.14782938361167908
1790341541764138500,0.802138427734375,0.4343251883983612,0.4043927788734436,0.018936822190880775
1790341541780598000,0.818597900390625,0.38728857040405273,0.4538728892803192,0.13500121235847473
1790341541797058600,0.83505859375,0.29565876722335815,0.3634648323059082,0.19792033731937408
1790341541813494800,0.851494873046875,0.2064724564552307,0.23090706765651703,0.23518311977386475
1790341541829956000,0.8679560546875,0.1258382350206375,0.07941248267889023,0.2822197377681732
1790341541846440700,0.884440673828125,0.08002334833145142,0.05192354694008827,0.2919935882091522
1790341541862925000,0.900925048828125,0.08552113175392151,0.09162978827953339,0.2278527319431305
1790341541879381500,0.917381591796875,0.13561208546161652,0.11484266817569733,0.10445795953273773
1790341541895871700,0.933871826171875,0.19120082259178162,0.08185594528913498,-0.005497787147760391
1790341541912333800,0.950333740234375,0.2223549485206604,0,-0.03176499158143997
1790341541928825900,0.966825927734375,0.23090706765651703,0.012828170321881771,0.02687807008624077
1790341541945289700,0.983289794921875,0.2278527319431305,0.13561208546161652,0.1612684279680252
1790341541961750800,0.999750732421875,0.17043140530586243,0.2571742534637451,0.32559117674827576
1790341541978213600,1.016213623046875,0.07513642311096191,0.2932153046131134,0.37262779474258423
1790341541994675000,1.032675048828125,0.003054326167330146,0.20036379992961884,0.28588494658470154
1790341542011184600,1.0491845703125,-0.048258353024721146,0.04764748737215996,0.1411098688840866
1790341542027647700,1.065647705078125,-0.08002334833145142,-0.06169738993048668,0.00855211354792118
1790341542044110300,1.0821103515625,-0.060475658625364304,-0.07391469180583954,-0.06108652427792549
1790341542060561200,1.09856103515625,-0.030543262138962746,-0.0403171069920063,-0.0659734457731247
1790341542077067300,1.1150673828125,-0.0024434609804302454,0.04214970022439957,-0.021991148591041565
1790341542093517000,1.13151708984375,0.039706241339445114,0.07269296050071716,0.021991148591041565
1790341542110055400,1.148055419921875,0.06841690838336945,0.05619960278272629,0.04337143152952194
1790341542126553000,1.164552978515625,0.02626720629632473,0.048258353024721146,0.024434609338641167
1790341542143022000,1.18102197265625,-0.04886921867728233,0.03787364438176155,0.001832595793530345
1790341542159498000,1.197498046875,-0.10262536257505417,0.08307767659425735,0.009162978269159794
1790341542175957200,1.213957275390625,-0.1007927656173706,0.1215621829032898,0.0555887371301651
1790341542192417000,1.2304169921875,-0.045204028487205505,0.13744467496871948,0.10873401165008545
1790341542208873500,1.24687353515625,0.007941247895359993,0.12828169763088226,0.12278391420841217
1790341542225372400,1.263372314453125,0.013439035043120384,0.05375614017248154,0.06658431142568588
1790341542241879000,1.279879150390625,-0.027488935738801956,-0.05864306539297104,-0.04703662544488907
1790341542258349000,1.29634912109375,-0.06352998316287994,-0.15943582355976105,-0.1618792861700058
1790341542274805200,1.31280517578125,-0.05009094998240471,-0.19303341209888458,-0.24190263450145721
1790341542291261700,1.32926171875,0.00427605677396059,-0.20952677726745605,-0.3017674386501312
1790341542307740200,1.345740234375,0.07513642311096191,-0.13439035415649414,-0.2669481039047241
1790341542324193800,1.36219384765625,0.13316862285137177,-0.01160643994808197,-0.15393804013729095
1790341542340648400,1.3786484375,0.13805554807186127,0.059864792972803116,-0.036041051149368286
1790341542357130200,1.395130126953125,0.09529497474431992,0.05864306539297104,0.019547687843441963
1790341542373629200,1.411629150390625,0.04398229718208313,0.0006108652451075613,-0.001832595793530345
1790341542390127600,1.428127685546875,0.01710422709584236,-0.016493361443281174,-0.05314527451992035
1790341542406603800,1.444603759765625,0.02076941914856434,0.039706241339445114,-0.10690141469240189
1790341542423095600,1.461095458984375,0.060475658625364304,0.09712757170200348,-0.1264491081237793
1790341542439593000,1.477593017578125,0.0757472887635231,0.12034045159816742,-0.09957103431224823
1790341542456046600,1.494046630859375,0.06475171446800232,0.03298672288656235,-0.059864792972803116
1790341542472579000,1.5105791015625,0.04398229718208313,-0.06902777403593063,-0.03420845419168472
1790341542489053700,1.5270537109375,0.028099801391363144,-0.11423180252313614,-0.029932396486401558
1790341542505510100,1.54351025390625,0.016493361443281174,-0.07757988572120667,-0.04337143152952194
1790341542522015000,1.560014892578125,-0.004886921960860491,-0.0354301854968071,-0.06108652427792549
1790341542538512000,1.576511962890625,-0.039095375686883926,-0.03176499158143997,-0.10201449692249298
1790341542555002600,1.593002685546875,-0.0555887371301651,-0.08124507963657379,-0.12767083942890167
1790341542571457800,1.609457763671875,-0.04703662544488907,-0.07147123664617538,-0.09285151958465576
1790341542587958500,1.62595849609375,-0.01466076634824276,-0.03848451003432274,-0.02382374368607998
1790341542604495400,1.642495361328125,0.00427605677396059,-0.02871066704392433,0.0659734457731247
1790341542620982500,1.658982421875,-0.00366519158706069,-0.027488935738801956,0.12522737681865692
1790341542637468200,1.67546826171875,-0.012828170321881771,-0.05314527451992035,0.12095131725072861
1790341542653951000,1.691950927734375,-0.04703662544488907,0.010995574295520782,0.08246681094169617
1790341542670420200,1.708420166015625,-0.08124507963657379,0.08368854224681854,0.05619960278272629
1790341542686874600,1.72487451171875,-0.1014036312699318,0.1014036312699318,0.056810468435287476
1790341542703325000,1.741324951171875,-0.11056660860776901,0.1007927656173706,0.09773843735456467
1790341542719781600,1.75778173828125,-0.10323622822761536,0.07269296050071716,0.152105450630188
1790341542736236800,1.77423681640625,-0.08735372871160507,0.036041051149368286,0.16859880089759827
1790341542752695000,1.790695068359375,-0.06841690838336945,-0.0012217304902151227,0.14294247329235077
1790341542769091600,1.807091552734375,-0.029932396486401558,-0.042760565876960754,0.07513642311096191
1790341542785588000,1.823587890625,0.016493361443281174,-0.051312681287527084,-0.00855211354792118
1790341542802153200,1.8401533203125,0.06352998316287994,-0.056810468435287476,-0.06169738993048668
1790341542818608400,1.8566083984375,0.0861319974064827,-0.021380282938480377,-0.0757472887635231
1790341542835094800,1.8730947265625,0.0910189226269722,-0.024434609338641167,-0.05925392732024193
1790341542851582000,1.88958203125,0.0910189226269722,-0.054367005825042725,-0.04398229718208313
1790341542868039000,1.906038818359375,0.09712757170200348,-0.06658431142568588,-0.04703662544488907
1790341542884529000,1.92252880859375,0.12339477986097336,-0.060475658625364304,-0.09468411654233932
1790341542900987100,1.938987060546875,0.1466076523065567,-0.060475658625364304,-0.18631389737129211
1790341542917474000,1.95547412109375,0.15515977144241333,-0.04092797264456749,-0.2718350291252136
1790341542933934300,1.971934326171875,0.16004669666290283,-0.036651913076639175,-0.38240164518356323
1790341542950390800,1.988390869140625,0.16004669666290283,0.04337143152952194,-0.45326200127601624
1790341542966880000,2.0048798828125,0.1319468915462494,0.192422553896904,-0.4550946056842804
1790341542983334400,2.02133447265625,0.15577064454555511,0.2816088795661926,-0.4453207552433014
1790341542999813600,2.037813720703125,0.25106561183929443,0.2669481039047241,-0.43737950921058655
1790341543016270300,2.054270263671875,0.38179078698158264,0.20463985204696655,-0.43249258399009705
1790341543032726300,2.070726318359375,0.5436700582504272,0.06841690838336945,-0.45265114307403564
1790341543049081600,2.08708154296875,0.6835582256317139,-0.0861319974064827,-0.4495968222618103
1790341543065495800,2.103495849609375,0.750142514705658,-0.17470745742321014,-0.3017674386501312
1790341543081955300,2.119955322265625,0.7379252314567566,-0.17837265133857727,-0.07147123664617538
1790341543098441500,2.13644140625,0.6493497490882874,-0.17898350954055786,0.17348572611808777
1790341543114830300,2.152830322265625,0.5253441333770752,-0.21319197118282318,0.24495697021484375
1790341543131164000,2.169163818359375,0.394008070230484,-0.19486601650714874,0.1362229436635971
1790341543147620600,2.18562060546875,0.22846360504627228,-0.06780604273080826,-0.04764748737215996
1790341543164106000,2.20210595703125,0.036651913076639175,0.07635815441608429,-0.3090978264808655
1790341543180560100,2.21856005859375,-0.12950342893600464,0.10567969083786011,-0.5791002511978149
1790341543197016000,2.23501611328125,-0.30970868468284607,0.048258353024721146,-0.8735373020172119
1790341543213474800,2.251474853515625,-0.4502076804637909,0.045204028487205505,-0.9877691268920898
1790341543229928700,2.2679287109375,-0.5522221922874451,0.01160643994808197,-0.8552113175392151
1790341543246413000,2.2844130859375,-0.6041457056999207,-0.0861319974064827,-0.6047565937042236
1790341543262868000,2.300867919921875,-0.5797111392021179,-0.20463985204696655,-0.3988949954509735
1790341543279321300,2.3173212890625,-0.49357911944389343,-0.3628539443016052,-0.3274237811565399
1790341543295720400,2.333720458984375,-0.3194825351238251,-0.5540547966957092,-0.3683517575263977
1790341543312173600,2.350173583984375,-0.10201449692249298,-0.5455026626586914,-0.35674530267715454
1790341543328629200,2.366629150390625,0.04214970022439957,-0.23518311977386475,-0.06841690838336945
1790341543345110800,2.38311083984375,0.07696902006864548,-0.006108652334660292,0.33047810196876526
1790341543361565000,2.39956494140625,0.09040805697441101,-0.07880161702632904,0.5393940210342407
1790341543378023400,2.4160234375,0.10384709388017654,-0.40256020426750183,0.48747047781944275
1790341543394480600,2.432480712890625,0.09834930300712585,-0.6805039048194885,0.2370157092809677
1790341543410970400,2.448970458984375,0.014049900695681572,-0.8295549750328064,-0.1814269721508026
1790341543427425500,2.465425537109375,-0.1258382350206375,-0.6481280326843262,-0.607200026512146
1790341543443880400,2.48188037109375,-0.23273965716362,-0.2773328125476837,-0.9248499870300293
1790341543460269600,2.49826953125,-0.2718350291252136,-0.009773843921720982,-1.0140362977981567
1790341543476723700,2.5147236328125,-0.29138273000717163,0.03237585723400116,-0.950506329536438
1790341543493234200,2.531234130859375,-0.2779437005519867,0.039095375686883926,-0.8772025108337402
1790341543509734700,2.547734619140625,-0.21563543379306793,0.05619960278272629,-0.7489207983016968
1790341543526186500,2.5641865234375,-0.09407325088977814,0.04886921867728233,-0.5577199459075928
1790341543542690300,2.580690185546875,0.06291911751031876,0.059864792972803116,-0.35674530267715454
1790341543559145200,2.597145263671875,0.2223549485206604,0.06658431142568588,-0.242513507604599
1790341543575602400,2.6136025390625,0.34025195240974426,0.08002334833145142,-0.2217440903186798
1790341543592085500,2.63008544921875,0.39767327904701233,0.20402899384498596,-0.19425514340400696
1790341543608544500,2.64654443359375,0.4801400899887085,0.2840523421764374,-0.07513642311096191
1790341543625003000,2.6630029296875,0.28099802136421204,0.646906316280365,0.2321287989616394
1790341543641462300,2.679462158203125,-0.35063666105270386,1.207069754600525,0.5626068711280823
1790341543657922000,2.695922119140625,-0.778853178024292,1.1062769889831543,0.7195992469787598
1790341543674380800,2.712380859375,-1.103833556175232,1.027475357055664,0.8533787727355957
1790341543690837800,2.728837646484375,-1.1062769889831543,0.39156460762023926,0.9334021210670471
1790341543707326200,2.745326171875,-0.7177666425704956,-0.47280970215797424,0.9724974632263184
1790341543723777500,2.761777587890625,-0.24984388053417206,-1.0965031385421753,0.9572258591651917
1790341543740163000,2.7781630859375,0.25473082065582275,-1.4233160018920898,0.9046914577484131
1790341543756615000,2.794614990234375,0.6768386960029602,-1.4526375532150269,0.8552113175392151
1790341543773066800,2.811066650390625,0.8930850028991699,-1.587027907371521,0.8161159753799438
1790341543789479200,2.827479248046875,0.9480628371238708,-1.3585642576217651,0.7684684991836548
1790341543805932300,2.843932373046875,0.8289441466331482,-0.9456194043159485,0.598647952079773
1790341543822419000,2.8604189453125,0.637132465839386,-0.252287358045578,0.31520646810531616
1790341543838897400,2.8768974609375,0.39645153284072876,0.4349360466003418,-0.23457226157188416
1790341543855353600,2.893353515625,0.08918632566928864,0.5229006409645081,-0.7654141783714294
1790341543871814000,2.90981396484375,-0.1569923609495163,0.7006624341011047,-1.0231993198394775
1790341543888270800,2.926270751953125,-0.13927727937698364,0.8967501521110535,-1.0598511695861816
1790341543904728800,2.942728759765625,0.039706241339445114,0.9529497623443604,-1.0506882667541504
1790341543921183500,2.95918359375,0.09834930300712585,0.5119050741195679,-0.9804387092590332
1790341543937638700,2.975638671875,0.08124507963657379,0.3072652220726013,-0.8686503767967224
1790341543954092300,2.99209228515625,0.027488935738801956,0.43249258399009705,-0.6401867866516113
1790341543970543000,3.008543212890625,-0.025656340643763542,0.46670106053352356,-0.30604347586631775
1790341543987024000,3.02502392578125,-0.025045474991202354,0.21563543379306793,-0.021380282938480377
1790341544003475000,3.041474853515625,0.003054326167330146,0.051312681287527084,0.09896016865968704
1790341544019925200,3.05792529296875,0.02382374368607998,0.182648703455925,0.05009094998240471
1790341544036431600,3.074431640625,-0.03420845419168472,0.27061331272125244,-0.06291911751031876
1790341544052883200,3.09088330078125,-0.11056660860776901,0.17043140530586243,-0.15882496535778046
1790341544069330400,3.107330322265625,-0.16065755486488342,-0.14355333149433136,-0.22846360504627228
1790341544085813000,3.12381298828125,-0.09346238523721695,-0.6505714654922485,-0.2480112910270691
1790341544102262800,3.1402626953125,0.06536258012056351,-1.4227051734924316,-0.304210901260376
1790341544118716200,3.156716064453125,0.30115658044815063,-1.9541579484939575,-0.5094616413116455
1790341544135166500,3.17316650390625,0.4813618063926697,-2.0036380290985107,-0.6786713004112244
1790341544151583000,3.1895830078125,0.5100724697113037,-1.9223929643630981,-0.7367035150527954
1790341544168033000,3.206032958984375,0.4355469346046448,-1.9144517183303833,-0.617584764957428
1790341544184482000,3.22248193359375,0.4147774875164032,-1.7299703359603882,-0.4386012554168701
1790341544200964600,3.238964599609375,0.423329621553421,-1.3054190874099731,-0.3433062732219696
1790341544217411000,3.2554111328125,0.4105014503002167,-0.9162978529930115,-0.384845107793808
1790341544233919700,3.271919677734375,0.40622538328170776,-0.5009095072746277,-0.5949827432632446
1790341544250370300,3.288370361328125,0.3781255781650543,-0.14294247329235077,-0.8949176073074341
1790341544266822400,3.304822509765625,0.32620203495025635,0.01160643994808197,-1.151481032371521
1790341544283200800,3.32120068359375,0.3066543638706207,0.15454891324043274,-1.4245377779006958
1790341544299650800,3.33765087890625,0.2883284091949463,0.39645153284072876,-1.690264105796814
1790341544316134000,3.3541337890625,0.21502456068992615,0.8729264140129089,-1.9150625467300415
1790341544332616000,3.370615966796875,0.1007927656173706,1.1527026891708374,-2.191173553466797
1790341544349069300,3.3870693359375,-0.03420845419168472,1.281595230102539,-2.1429152488708496
1790341544365557800,3.403557861328125,-0.09896016865968704,1.186300277709961,-2.0873265266418457
1790341544382014700,3.4200146484375,-0.05253441259264946,0.901637077331543,-2.085494041442871
1790341544398505700,3.436505615234375,0.0708603709936142,0.4593706727027893,-2.0787744522094727
1790341544414958300,3.452958251953125,0.16554448008537292,-0.006719517521560192,-2.051896333694458
1790341544431409700,3.46940966796875,0.15760323405265808,0.09346238523721695,-2.0250182151794434
1790341544447863600,3.485863525390625,0.12400564551353455,0.31581732630729675,-2.0030272006988525
1790341544464314000,3.502314208984375,0.12522737681865692,0.40194934606552124,-1.919338583946228
1790341544480766500,3.518766357421875,0.15332718193531036,0.34574973583221436,-1.7898352146148682
1790341544497220000,3.53522021484375,0.17348572611808777,0.13561208546161652,-1.665218710899353
1790341544513720600,3.551720458984375,0.2021963894367218,-0.10690141469240189,-1.5754214525222778
1790341544530234400,3.568234375,0.242513507604599,-0.2840523421764374,-1.4703526496887207
1790341544546686000,3.58468603515625,0.22418753802776337,-0.3701843321323395,-1.3353514671325684
1790341544563170000,3.601170166015625,0.15454891324043274,-0.26511552929878235,-1.1966849565505981
1790341544579650800,3.61765087890625,0.11239920556545258,-0.1258382350206375,-1.0183123350143433
1790341544596103400,3.634103515625,0.11056660860776901,-0.00855211354792118,-0.9034696817398071
1790341544612586500,3.65058642578125,0.11239920556545258,0.15882496535778046,-0.7782423496246338
1790341544629039000,3.6670390625,0.10934487730264664,0.33292156457901,-0.6236934065818787
1790341544645491200,3.6834912109375,0.11972958594560623,0.513737678527832,-0.513126790523529
1790341544661940200,3.699940185546875,0.11667526513338089,0.6524040699005127,-0.4502076804637909
1790341544678388500,3.716388427734375,0.09346238523721695,0.6884451508522034,-0.41172316670417786
1790341544694873300,3.732873291015625,0.0757472887635231,0.7012733221054077,-0.3732386529445648
1790341544711326200,3.749326171875,0.056810468435287476,0.6994407176971436,-0.3597996234893799
1790341544727801300,3.76580126953125,-0.006719517521560192,0.6493497490882874,-0.3805690407752991
1790341544744252000,3.782251953125,-0.11728613078594208,0.6096435189247131,-0.44165557622909546
1790341544760702700,3.79870263671875,-0.2480112910270691,0.5076290369033813,-0.4691445231437683
1790341544777093000,3.815093017578125,-0.3543018400669098,0.3646865487098694,-0.5241223573684692
1790341544793543200,3.831543212890625,-0.37262779474258423,0.2070833146572113,-0.5613851547241211
1790341544810027500,3.848027587890625,-0.31093040108680725,0.0555887371301651,-0.5051855444908142
1790341544826448100,3.8644482421875,-0.24556782841682434,-0.036041051149368286,-0.45326200127601624
1790341544842900200,3.880900146484375,0.2119702398777008,0.5247332453727722,0.9896016716957092
1790341544859354000,3.89735400390625,0.32498031854629517,0.7586946487426758,1.0879509449005127
1790341544875807000,3.913806884765625,0.36651915311813354,0.6572909951210022,1.1630873680114746
1790341544892259600,3.930259521484375,0.34636059403419495,0.646906316280365,1.1722503900527954
1790341544908709600,3.946709716796875,0.32681289315223694,0.6817256212234497,1.2553280591964722
1790341544925158400,3.963158447265625,0.2767219543457031,0.6401867866516113,1.2651019096374512
1790341544941643300,3.979643310546875,0.22479841113090515,0.5558874011039734,1.2290608882904053
1790341544958094000,3.996093994140625,0.1514945775270462,0.36163222789764404,1.1136072874069214
1790341544974601500,4.0126015625,0.042760565876960754,0.08796459436416626,0.9150761365890503
1790341544991051300,4.02905126953125,0.005497787147760391,-0.03726277872920036,0.5797111392021179
1790341545007502000,4.045502197265625,0.02015855349600315,-0.13255776464939117,0.3323107063770294
1790341545024015000,4.06201513671875,0.06108652427792549,-0.21380282938480377,0.2125810980796814
1790341545040462300,4.07846240234375,0.14355333149433136,-0.2767219543457031,0.1820378452539444
1790341545056909800,4.094909912109375,0.08002334833145142,-0.43188172578811646,0.029932396486401558
1790341545073386800,4.11138671875,-0.03176499158143997,-0.48258355259895325,-0.11484266817569733
1790341545089835000,4.1278349609375,-0.0861319974064827,-0.46547931432724,-0.19120082259178162
1790341545106318300,4.144318359375,-0.2064724564552307,-0.4697553813457489,0.08246681094169617
1790341545122837000,4.1608369140625,-0.27611109614372253,-0.26022860407829285,0.5925393104553223
1790341545139209500,4.17720947265625,-0.31581732630729675,-0.042760565876960754,0.8148942589759827
1790341545155656000,4.193656005859375,-0.3488040566444397,0.042760565876960754,0.817948579788208
1790341545172157400,4.210157470703125,-0.3854559659957886,0.006719517521560192,0.8460483551025391
1790341545188610000,4.226610107421875,-0.5754350423812866,-0.4184426963329315,0.7941248416900635
1790341545205061600,4.2430615234375,-0.503963828086853,-0.3701843321323395,0.8717046976089478
1790341545221568000,4.259568115234375,0.42760565876960754,-1.3377948999404907,-0.13561208546161652
1790341545238017500,4.276017578125,0.37201693654060364,-0.9957103729248047,-0.02076941914856434
1790341545254467000,4.292467041015625,0.45753806829452515,-1.1478158235549927,-0.0659734457731247
1790341545270877700,4.308877685546875,0.5076290369033813,-1.084285855293274,0.05253441259264946
1790341545287326500,4.325326416015625,0.617584764957428,-1.1539244651794434,0.21563543379306793
1790341545303776000,4.34177587890625,0.6407976150512695,-1.1911872625350952,0.35613444447517395
1790341545320253200,4.358253173828125,0.6163630485534668,-1.207069754600525,0.38667771220207214
1790341545336704500,4.37470458984375,0.5925393104553223,-1.0702359676361084,0.23396138846874237
1790341545353157000,4.3911572265625,0.5229006409645081,-0.9834930300712585,0.13377949595451355
1790341545369609700,4.407609619140625,0.3634648323059082,-0.8753699064254761,0.0757472887635231
1790341545386095600,4.424095703125,0.28099802136421204,-0.656680166721344,-0.0403171069920063
1790341545402547700,4.440547607421875,0.15454891324043274,-0.4129449129104614,-0.1313360333442688
1790341545419000000,4.457,0.06230825558304787,-0.14477506279945374,-0.2767219543457031
1790341545435481300,4.4734814453125,-0.17592918872833252,-0.004886921960860491,-0.21930062770843506
1790341545451933700,4.48993359375,-0.4447098970413208,0.12400564551353455,0.05925392732024193
1790341545468418000,4.50641796875,-0.5448917746543884,0.2968805134296417,0.3854559659957886
1790341545484869400,4.522869384765625,-0.5082398653030396,0.5998696684837341,0.7049384713172913
1790341545501320200,4.5393203125,-0.3084869384765625,0.8313875794410706,0.7342600226402283
1790341545517740300,4.555740234375,-0.20586158335208893,0.8655960559844971,0.6731734871864319
1790341545534191900,4.57219189453125,-0.17837265133857727,0.675616979598999,0.5522221922874451
1790341545550646500,4.588646484375,-0.15515977144241333,0.4801400899887085,0.4691445231437683
1790341545567125200,4.605125244140625,-0.11362093687057495,0.34208452701568604,0.3597996234893799
1790341545583574500,4.621574462890625,-0.04092797264456749,0.27550023794174194,0.20830504596233368
1790341545600056300,4.638056396484375,0.00366519158706069,0.1765400618314743,0.10934487730264664
1790341545616507400,4.65450732421875,0.05375614017248154,0.027488935738801956,0.07452555745840073
1790341545632971500,4.670971435546875,0.13439035415649414,-0.13805554807186127,-0.009773843921720982
1790341545649420500,4.687420654296875,0.3182607889175415,-0.16065755486488342,-0.14966198801994324
1790341545665869800,4.703869873046875,0.49296826124191284,-0.4288274049758911,-0.39156460762023926
1790341545682319600,4.720319580078125,0.15515977144241333,-0.14782938361167908,0.48319441080093384
1790341545698771000,4.73677099609375,0.2278527319431305,-0.6499606370925903,0.8961393237113953
1790341545715222800,4.753222900390625,0.1215621829032898,-0.3121521472930908,0.8032878041267395
1790341545731674600,4.769674560546875,0.19547687470912933,0.1258382350206375,0.8350527882575989
1790341545748125400,4.78612548828125,0.1973094791173935,0.4337143301963806,0.7354817390441895
1790341545764597200,4.80259716796875,0.20341812074184418,0.49724429845809937,0.5314527750015259
1790341545781045000,4.819044921875,0.21930062770843506,0.4764748811721802,0.3732386529445648
1790341545797492200,4.8354921875,0.11911872029304504,0.41233405470848083,0.15332718193531036
1790341545813963300,4.85196337890625,0.06230825558304787,0.3139847218990326,-0.1111774742603302
1790341545830439400,4.868439453125,0.03481931984424591,0.4642575979232788,-0.304210901260376
1790341545846884600,4.884884521484375,-0.0806342139840126,0.5900958180427551,-0.5338962078094482
1790341545863374600,4.90137451171875,-0.08307767659425735,0.29565876722335815,-0.49296826124191284
1790341545879819800,4.91781982421875,0.05925392732024193,-0.16249015927314758,-0.4502076804637909
1790341545896269000,4.93426904296875,0.24190263450145721,-0.2840523421764374,-0.394008070230484
1790341545912713200,4.950713134765625,0.4056145250797272,-0.1820378452539444,-0.36590829491615295
1790341545929159400,4.967159423828125,0.4343251883983612,-0.10262536257505417,-0.3549126982688904
1790341545945604000,4.98360400390625,0.375071257352829,-0.05253441259264946,-0.3188716471195221
1790341545962045200,5.000045166015625,0.26511552929878235,0.051312681287527084,-0.29138273000717163
1790341545978488600,5.016488525390625,0.09162978827953339,-0.2480112910270691,-0.3182607889175415
1790341545994935800,5.032935791015625,-0.11423180252313614,-0.2535090744495392,-0.4129449129104614
1790341546011381200,5.04938134765625,-0.5283984541893005,0.22479841113090515,-0.7183775305747986
1790341546027830800,5.065830810546875,-1.0476338863372803,0.9749409556388855,-1.1282681226730347
1790341546044274400,5.0822744140625,-1.433700680732727,1.607797384262085,-1.3628404140472412
1790341546060747800,5.098747802734375,-1.6181820631027222,0.8057312369346619,-1.0574077367782593
1790341546077794300,5.115794189453125,-1.7055357694625854,-0.2070833146572113,-1.1136072874069214
1790341546093440500,5.1314404296875,-1.5632041692733765,-0.7513642311096191,-0.8387179970741272
1790341546109887500,5.147887451171875,-1.2009611129760742,-0.0354301854968071,-0.7287622094154358
1790341546126336800,5.164336669921875,-0.6921103000640869,-0.04092797264456749,-0.7226535677909851
1790341546142786600,5.18078662109375,-0.25534167885780334,-0.4648684561252594,-0.5894849896430969
1790341546159236600,5.197236572265625,0.08674286305904388,-0.18875735998153687,-0.45814892649650574
1790341546175687200,5.213687255859375,0.27000242471694946,0.09651670604944229,-0.3646865487098694
1790341546192103700,5.230103759765625,0.36529740691185,0.02871066704392433,-0.3384193480014801
1790341546208552000,5.246552001953125,0.4080579876899719,0.14477506279945374,-0.3433062732219696
1790341546225000000,5.263,0.43127086758613586,0.27488934993743896,-0.3481931984424591
1790341546241446700,5.27944677734375,0.5534439086914062,0.4098905920982361,-0.3017674386501312
1790341546257921500,5.295921630859375,0.5296201705932617,0.08796459436416626,-0.1722639948129654
1790341546274367500,5.312367431640625,0.48258355259895325,0.03787364438176155,-0.048258353024721146
1790341546290812000,5.32881201171875,0.33536502718925476,-0.006108652334660292,-0.013439035043120384
1790341546307280100,5.345280029296875,0.12034045159816742,-0.06230825558304787,0.054367005825042725
1790341546323741000,5.361740966796875,0.00855211354792118,-0.05619960278272629,0.05314527451992035
1790341546340228900,5.378228759765625,-0.0555887371301651,0.021991148591041565,-0.004886921960860491
1790341546356693500,5.394693603515625,-0.15271630883216858,-0.006108652334660292,-0.025656340643763542
1790341546373139700,5.4111396484375,-0.09896016865968704,-0.08491026610136032,0.00427605677396059
1790341546389606400,5.4276064453125,-0.060475658625364304,-0.01038470957428217,0.015882495790719986
1790341546406091500,5.444091552734375,-0.0806342139840126,0.02687807008624077,0.06902777403593063
1790341546422538200,5.460538330078125,-0.1062905490398407,-0.02076941914856434,0.08491026610136032
1790341546438986800,5.47698681640625,-0.08124507963657379,0.04398229718208313,0.06780604273080826
1790341546455445500,5.493445556640625,0.036651913076639175,0.08552113175392151,0.030543262138962746
1790341546471921000,5.5099208984375,0.22907446324825287,0.1215621829032898,0.03787364438176155
1790341546488367600,5.52636767578125,0.45204028487205505,0.20525072515010834,0.13927727937698364
1790341546504738300,5.54273828125,0.5925393104553223,0.22846360504627228,0.22540926933288574
1790341546521183500,5.55918359375,0.598647952079773,0.24495697021484375,0.2480112910270691
1790341546537673200,5.575673095703125,0.46853363513946533,0.14294247329235077,0.22968533635139465
1790341546554148000,5.592148193359375,0.3878994286060333,-0.11728613078594208,0.21807889640331268
1790341546570596000,5.60859619140625,0.46853363513946533,-0.25961771607398987,0.2431243658065796
1790341546587046000,5.6250458984375,0.5827654600143433,-0.09957103431224823,0.3781255781650543
1790341546603494400,5.641494384765625,0.6340781450271606,0.10262536257505417,0.5027421116828918
1790341546619942700,5.657942626953125,0.6328563690185547,0.15577064454555511,0.5338962078094482
1790341546636389000,5.67438916015625,0.5723807215690613,0.25595253705978394,0.5009095072746277
1790341546652837000,5.690837158203125,0.4593706727027893,0.2535090744495392,0.40744712948799133
1790341546669282300,5.7072822265625,0.3897320330142975,0.21624629199504852,0.30604347586631775
1790341546685726000,5.723725830078125,0.40072759985923767,0.26450464129447937,0.21441370248794556
1790341546702196500,5.740196533203125,0.29626965522766113,0.29626965522766113,0.05009094998240471
1790341546718639600,5.7566396484375,0.05803219974040985,0.09468411654233932,-0.14966198801994324
1790341546735081500,5.77308154296875,-0.12767083942890167,-0.08918632566928864,-0.2791654169559479
1790341546751494100,5.789494140625,-0.30115658044815063,-0.252287358045578,-0.29016098380088806
1790341546767938000,5.80593798828125,-0.4129449129104614,-0.0910189226269722,-0.19975294172763824
1790341546784415200,5.822415283203125,-0.4813618063926697,0.11545353382825851,-0.08491026610136032
1790341546800889300,5.838889404296875,-0.43615779280662537,0.20586158335208893,0.07147123664617538
1790341546817335600,5.85533544921875,-0.3500257730484009,0.09773843735456467,0.2687807083129883
1790341546833814500,5.871814453125,-0.3237585723400116,0.17837265133857727,0.3543018400669098
1790341546850264300,5.888264404296875,-0.22540926933288574,0.18387043476104736,0.43127086758613586
1790341546866677000,5.904677001953125,-0.07147123664617538,0.09834930300712585,0.3952298164367676
1790341546883121200,5.92112109375,0.12339477986097336,0.04886921867728233,0.4080579876899719
1790341546899565800,5.93756591796875,0.37751471996307373,0.08429940044879913,0.48747047781944275
1790341546916010500,5.954010498046875,0.5839871764183044,-0.10934487730264664,0.6059783101081848
1790341546932454400,5.970454345703125,0.7544185519218445,-0.16859880089759827,0.8833111524581909
1790341546948922400,5.98692236328125,0.7379252314567566,-0.07208210229873657,1.0714576244354248
1790341546965367800,6.003367919921875,0.6090326309204102,-0.0507018156349659,1.3463469743728638
1790341546981811000,6.01981103515625,0.4245513379573822,-0.27977627515792847,1.215621829032898
1790341546998175700,6.03617578125,0.38667771220207214,-0.1618792861700058,1.0042624473571777
1790341547014616800,6.052616943359375,0.21563543379306793,-0.1667662113904953,0.7397578358650208
1790341547031093000,6.069093017578125,0.19058994948863983,-0.09162978827953339,0.6023131608963013
1790341547047564500,6.085564453125,0.06108652427792549,-0.18875735998153687,0.5503895878791809
1790341547063990800,6.10199072265625,-0.10384709388017654,-0.07330382615327835,0.48808133602142334
1790341547080471300,6.11847119140625,-0.10873401165008545,0.033597588539123535,0.4764748811721802
1790341547096917800,6.134917724609375,-0.1111774742603302,-0.03848451003432274,0.5161811113357544
1790341547113399600,6.151399658203125,-0.10567969083786011,-0.1007927656173706,0.5650503635406494
1790341547129847600,6.16784765625,-0.12950342893600464,-0.15760323405265808,0.7422012686729431
1790341547146293200,6.184293212890625,-0.1111774742603302,0.0757472887635231,0.7104362845420837
1790341547162742500,6.200742431640625,-0.05619960278272629,0.006719517521560192,0.6157521605491638
1790341547179190500,6.2171904296875,0.016493361443281174,-0.18081611394882202,0.43615779280662537
1790341547195659500,6.233659423828125,0.019547687843441963,-0.14844025671482086,0.20952677726745605
1790341547212072200,6.250072265625,0,-0.05925392732024193,0.04581489413976669
1790341547228563700,6.266563720703125,-0.021991148591041565,-0.09834930300712585,-0.09529497474431992
1790341547245044200,6.283044189453125,-0.13072516024112701,-0.11239920556545258,-0.1007927656173706
1790341547261514800,6.2995146484375,-0.23396138846874237,-0.09468411654233932,-0.1459967941045761
1790341547277962800,6.315962646484375,-0.41111230850219727,-0.09834930300712585,-0.12522737681865692
1790341547294439000,6.33243896484375,-0.5369505286216736,-0.15393804013729095,-0.11972958594560623
1790341547310886100,6.34888623046875,-0.5455026626586914,-0.08246681094169617,-0.0959058403968811
1790341547327334000,6.365333984375,-0.4202753007411957,-0.001832595793530345,-0.08307767659425735
1790341547343780900,6.38178076171875,-0.252287358045578,0.027488935738801956,-0.006108652334660292
1790341547360229400,6.3982294921875,-0.11423180252313614,-0.016493361443281174,0.045204028487205505
1790341547376676900,6.4146767578125,-0.12034045159816742,-0.05009094998240471,0.02687807008624077
1790341547393123300,6.431123291015625,-0.1973094791173935,-0.014049900695681572,-0.03481931984424591
1790341547409570000,6.447570068359375,-0.33292156457901,0.0659734457731247,-0.1258382350206375
1790341547426016000,6.46401611328125,-0.46853363513946533,0.04459316283464432,-0.18020524084568024
1790341547442459100,6.480459228515625,-0.4856378734111786,-0.051312681287527084,-0.13744467496871948
1790341547458904000,6.496904052734375,-0.3787364661693573,-0.1313360333442688,-0.018325956538319588
1790341547475350300,6.513350341796875,-0.24373523890972137,-0.05192354694008827,0.03420845419168472
1790341547491826400,6.529826416015625,-0.09285151958465576,-0.019547687843441963,0.05925392732024193
1790341547508303400,6.546303466796875,-0.016493361443281174,0.004886921960860491,-0.030543262138962746
1790341547524816100,6.562816162109375,0.10995574295520782,0.08918632566928864,-0.0354301854968071
1790341547541151700,6.57915185546875,0.15027284622192383,0.06719517707824707,-0.02626720629632473
1790341547557629000,6.59562890625,0.21563543379306793,-0.001832595793530345,-0.0659734457731247
1790341547574073600,6.612073486328125,0.1618792861700058,-0.06414084881544113,0.027488935738801956
1790341547590517800,6.628517822265625,0.07147123664617538,-0.012217304669320583,0.08307767659425735
1790341547606959600,6.644959716796875,0.09773843735456467,-0.010995574295520782,0.0659734457731247
1790341547623407600,6.66140771484375,0.1264491081237793,-0.1661553531885147,0.03237585723400116
1790341547639799300,6.67779931640625,-0.007941247895359993,0.015271631069481373,-0.07941248267889023
1790341547656294100,6.694294189453125,-0.006719517521560192,0.036651913076639175,-0.1459967941045761
1790341547672767700,6.710767822265625,-0.02076941914856434,-0.1459967941045761,-0.21074850857257843
1790341547689213200,6.727213134765625,-0.0507018156349659,-0.006719517521560192,-0.22052235901355743
1790341547705655000,6.743655029296875,0.005497787147760391,-0.018325956538319588,-0.251676470041275
1790341547722097000,6.760096923828125,-0.012828170321881771,-0.10690141469240189,-0.2681698501110077
1790341547738541600,6.77654150390625,-0.056810468435287476,-0.025656340643763542,-0.29504790902137756
1790341547754984700,6.792984619140625,-0.056810468435287476,0.045204028487205505,-0.294437050819397
1790341547771431400,6.809431396484375,-0.09651670604944229,0.0006108652451075613,-0.342695415019989
1790341547787903700,6.82590380859375,-0.1661553531885147,0.06291911751031876,-0.31642818450927734
1790341547804348200,6.84234814453125,-0.21991148591041565,0.05742133408784866,-0.3530801236629486
1790341547820790300,6.858790283203125,-0.15027284622192383,0.12217304855585098,-0.36163222789764404
1790341547837232600,6.875232666015625,-0.12522737681865692,0.048258353024721146,-0.2871066629886627
1790341547853676000,6.891676025390625,-0.11789698898792267,-0.025045474991202354,-0.35613444447517395
1790341547870155800,6.90815576171875,-0.21013765037059784,0.048258353024721146,-0.30543261766433716
1790341547886600400,6.924600341796875,-0.26083946228027344,0.10690141469240189,-0.31581732630729675
1790341547903043800,6.9410439453125,-0.24495697021484375,0.19303341209888458,-0.2919935882091522
1790341547919484700,6.957484619140625,-0.33169981837272644,0.16432274878025055,-0.30604347586631775
1790341547935927300,6.97392724609375,-0.3445279896259308,0.17959438264369965,-0.3805690407752991
1790341547952366600,6.99036669921875,-0.3017674386501312,0.13316862285137177,-0.4795292317867279
1790341547968806100,7.00680615234375,-0.21074850857257843,0.0659734457731247,-0.33292156457901
1790341547985273300,7.0232734375,-0.09896016865968704,0.027488935738801956,-0.2822197377681732
1790341548001715200,7.039715087890625,-0.06108652427792549,0.0507018156349659,-0.24556782841682434
1790341548018160000,7.05616015625,0.039706241339445114,-0.03420845419168472,-0.32070425152778625
1790341548034633700,7.0726337890625,0.1973094791173935,-0.242513507604599,-0.3732386529445648
1790341548051078700,7.08907861328125,0.4355469346046448,-0.23335053026676178,0.08735372871160507
1790341548066559700,7.104559814453125,0.5681046843528748,-0.01710422709584236,0.13744467496871948
1790341548083002400,7.12100244140625,0.6401867866516113,-0.1869247704744339,0.16859880089759827
1790341548099449600,7.13744970703125,0.6731734871864319,-0.2883284091949463,-0.02626720629632473
1790341548115896000,7.15389599609375,0.39767327904701233,-0.2571742534637451,-0.1514945775270462
1790341548131347500,7.169347412109375,0.2736676335334778,-0.10873401165008545,-0.28588494658470154
1790341548147831800,7.185831787109375,0.26572638750076294,-0.05864306539297104,-0.37629300355911255
1790341548164277000,7.202277099609375,-0.12950342893600464,-0.12950342893600464,-0.2926044464111328
1790341548180720600,7.218720703125,-0.32498031854629517,0.01160643994808197,-0.3378084897994995
1790341548197166600,7.23516650390625,-0.1270599663257599,0.25534167885780334,-0.5290092825889587
1790341548213650700,7.251650634765625,0.06475171446800232,0.15760323405265808,-0.8759807348251343
1790341548230115000,7.268114990234375,0.0024434609804302454,0.3335324227809906,-0.6316346526145935
1790341548246565000,7.284565185546875,0.08002334833145142,0.1667662113904953,-0.4917465150356293
1790341548263014400,7.301014404296875,0.17837265133857727,-0.18570303916931152,-0.37568211555480957
1790341548279492400,7.317492431640625,0.02626720629632473,-0.004886921960860491,-0.6352998614311218
1790341548295940000,7.333940185546875,0.03726277872920036,-0.10445795953273773,-0.7141014933586121
1790341548312389400,7.350389404296875,-0.021991148591041565,0.02076941914856434,-0.48808133602142334
1790341548328834600,7.36683447265625,-0.03848451003432274,-0.06658431142568588,-0.4807509481906891
1790341548345278200,7.3832783203125,-0.18509216606616974,-0.05742133408784866,-0.4508185386657715
1790341548361722400,7.399722412109375,-0.24678955972194672,0.07147123664617538,-0.9205739498138428
1790341548378170000,7.416170166015625,-0.10201449692249298,-0.09346238523721695,-0.8857545852661133
1790341548394619000,7.432618896484375,-0.12828169763088226,-0.2064724564552307,-1.1325441598892212
1790341548411063300,7.449063232421875,-0.2828305959701538,-0.013439035043120384,-1.1380419731140137
1790341548427510300,7.46551025390625,-0.2064724564552307,0.0757472887635231,-0.6890559792518616
1790341548443960300,7.481960205078125,-0.02321287989616394,-0.11239920556545258,-0.5546656250953674
1790341548460410400,7.498410400390625,0.02382374368607998,-0.0403171069920063,-0.3090978264808655
1790341548476877300,7.514877197265625,-0.025656340643763542,-0.14049901068210602,-0.17409659922122955
1790341548493326000,7.531326171875,-0.21074850857257843,-0.20586158335208893,0.03420845419168472
1790341548509773800,7.54777392578125,-0.3500257730484009,0.10934487730264664,0.1618792861700058
1790341548526245600,7.56424560546875,-0.16859880089759827,0.2718350291252136,0.19303341209888458
1790341548542630100,7.580630126953125,0.007941247895359993,0.10812314599752426,0.2278527319431305
1790341548559075600,7.59707568359375,0.024434609338641167,0.23579397797584534,0.0659734457731247
1790341548575520500,7.6135205078125,0.01466076634824276,0.14477506279945374,-0.03237585723400116
1790341548592012000,7.630011962890625,-0.036651913076639175,-0.07452555745840073,-0.1007927656173706
1790341548608460500,7.64646044921875,0,-0.025656340643763542,-0.07513642311096191
1790341548624939000,7.66293896484375,0.07391469180583954,-0.006719517521560192,0.00855211354792118
1790341548641462500,7.679462646484375,-0.009773843921720982,0.01771509274840355,0.051312681287527084
1790341548657928200,7.69592822265625,0.09346238523721695,0.006719517521560192,0.17409659922122955
1790341548674375200,7.712375244140625,0.11728613078594208,-0.08674286305904388,0.24678955972194672
1790341548690824000,7.728823974609375,0.0806342139840126,0.07880161702632904,0.3286454975605011
1790341548707271700,7.745271728515625,0.2638937830924988,0.09834930300712585,0.4489859640598297
1790341548723748000,7.761748046875,0.3787364661693573,0.01466076634824276,0.5253441333770752
1790341548740194000,7.778194091796875,0.39217549562454224,0.08857546001672745,0.5723807215690613
1790341548756640000,7.794639892578125,0.34086281061172485,0.1215621829032898,0.5277875661849976
1790341548773115100,7.811115234375,0.2883284091949463,0.04703662544488907,0.49724429845809937
1790341548789563000,7.82756298828125,0.22602014243602753,0.03726277872920036,0.32620203495025635
1790341548806011400,7.844011474609375,0.1918116807937622,-0.11789698898792267,0.30543261766433716
1790341548822458400,7.860458251953125,0.26633724570274353,-0.004886921960860491,0.42699480056762695
1790341548838906400,7.87690625,0.22113321721553802,-0.031154127791523933,0.303600013256073
1790341548855355000,7.89335498046875,0.05497787147760391,-0.13744467496871948,0.2638937830924988
1790341548871800800,7.90980078125,0.028099801391363144,-0.018325956538319588,0.2565633952617645
1790341548888294700,7.926294677734375,0.04398229718208313,-0.16249015927314758,0.16065755486488342
1790341548904742400,7.942742431640625,-0.10384709388017654,-0.08796459436416626,0.05497787147760391
1790341548921190000,7.95918994140625,-0.09224065393209457,-0.02382374368607998,-0.00366519158706069
1790341548937636000,7.975635986328125,-0.07147123664617538,-0.09529497474431992,-0.0910189226269722
1790341548954083600,7.99208349609375,-0.18570303916931152,-0.015271631069481373,-0.1820378452539444
1790341548970589200,8.008589111328124,-0.1918116807937622,0.06475171446800232,-0.15454891324043274
1790341548987035400,8.025035400390625,-0.182648703455925,-0.042760565876960754,-0.1508837193250656
1790341549003513900,8.041513916015624,-0.2223549485206604,0.03787364438176155,-0.13988813757896423
1790341549019990800,8.05799072265625,-0.09651670604944229,-0.0708603709936142,-0.1264491081237793
1790341549036437800,8.074437744140624,-0.1563815027475357,-0.04459316283464432,-0.0555887371301651
1790341549052913200,8.0909130859375,-0.16737708449363708,0.00855211354792118,-0.00366519158706069
1790341549069277200,8.107277099609375,-0.11178833991289139,-0.05742133408784866,-0.05192354694008827
1790341549085754600,8.123754638671874,-0.2168571650981903,-0.06414084881544113,-0.07269296050071716
1790341549102248200,8.140248291015626,-0.21441370248794556,0.04153883829712868,-0.04153883829712868
1790341549118697700,8.15669775390625,-0.13255776464939117,-0.04398229718208313,-0.13439035415649414
1790341549135176200,8.17317626953125,-0.23151792585849762,0.04214970022439957,-0.08918632566928864
1790341549151626200,8.189626220703126,-0.18570303916931152,0.05253441259264946,-0.07880161702632904
1790341549168118500,8.206118408203125,-0.09834930300712585,-0.02382374368607998,-0.07513642311096191
1790341549184566000,8.22256591796875,-0.08429940044879913,0.001832595793530345,-0.11728613078594208
1790341549201015000,8.23901513671875,-0.07635815441608429,0.05009094998240471,-0.11362093687057495
1790341549217403100,8.255403076171875,0.010995574295520782,0.031154127791523933,-0.07696902006864548
1790341549233860400,8.2718603515625,-0.01710422709584236,0.01466076634824276,-0.07391469180583954
1790341549250366500,8.288366455078124,0.00366519158706069,0.05619960278272629,-0.04092797264456749
1790341549266896400,8.304896484375,-0.006108652334660292,0.009162978269159794,-0.01710422709584236
1790341549283381800,8.3213818359375,-0.021991148591041565,0.006719517521560192,-0.028099801391363144
1790341549299910400,8.337910400390625,-0.005497787147760391,0.01466076634824276,-0.0024434609804302454
1790341549316398300,8.3543984375,0.004886921960860491,0.015271631069481373,0.025045474991202354
1790341549332871700,8.37087158203125,0.02871066704392433,0.012828170321881771,-0.02687807008624077
1790341549349372400,8.387372314453126,0.08857546001672745,0.03726277872920036,-0.05619960278272629
1790341549365822200,8.403822265625,0.051312681287527084,-0.027488935738801956,-0.06108652427792549
1790341549382351000,8.42035107421875,0.001832595793530345,0.036651913076639175,0.00366519158706069
1790341549398844200,8.43684423828125,0.0806342139840126,0.0403171069920063,0.031154127791523933
1790341549415355400,8.45335546875,0.0507018156349659,-0.006719517521560192,0.019547687843441963
1790341549431857000,8.46985693359375,0.021991148591041565,0.051312681287527084,0.0507018156349659
1790341549448306000,8.486305908203125,0.031154127791523933,0.06658431142568588,0.048258353024721146
1790341549464861700,8.50286181640625,-0.02626720629632473,-0.03481931984424591,0.07635815441608429
1790341549481333800,8.519333740234375,-0.10384709388017654,0.12950342893600464,0.13988813757896423
1790341549497785600,8.53578564453125,-0.06169738993048668,0.060475658625364304,0.16493362188339233
1790341549514263800,8.552263916015624,-0.0555887371301651,0.05192354694008827,0.15760323405265808
1790341549530714400,8.56871435546875,-0.02626720629632473,0.08429940044879913,0.16310101747512817
1790341549547164000,8.585163818359375,-0.006719517521560192,0.039706241339445114,0.14782938361167908
1790341549563556400,8.601556396484375,0.10262536257505417,0.04153883829712868,0.1319468915462494
1790341549580007200,8.618007080078126,0.10323622822761536,-0.03726277872920036,0.05314527451992035
1790341549596459000,8.634458984375,0.1459967941045761,0.09224065393209457,-0.0659734457731247
1790341549612905500,8.650905517578124,0.16554448008537292,-0.013439035043120384,-0.10262536257505417
1790341549629355000,8.66735498046875,0.23029619455337524,-0.00366519158706069,-0.13805554807186127
1790341549645731800,8.68373193359375,0.16798794269561768,-0.012217304669320583,-0.19975294172763824
1790341549662179800,8.700179931640625,0.09346238523721695,-0.00855211354792118,-0.19058994948863983
1790341549678626600,8.71662646484375,0.10934487730264664,-0.03420845419168472,-0.16065755486488342
1790341549695075000,8.733074951171876,0.09712757170200348,-0.04703662544488907,-0.11728613078594208
1790341549711552800,8.749552734375,0.039095375686883926,0.01160643994808197,-0.10690141469240189
1790341549728026600,8.766026611328124,-0.01160643994808197,0.02321287989616394,-0.06841690838336945
1790341549744532700,8.78253271484375,-0.021380282938480377,0.01771509274840355,-0.04337143152952194
1790341549761062700,8.799062744140626,0.005497787147760391,-0.04092797264456749,0.010995574295520782
1790341549777550300,8.81555029296875,-0.00427605677396059,0.10812314599752426,0.08307767659425735
1790341549793997800,8.831997802734374,0.08429940044879913,-0.0354301854968071,0.15271630883216858
1790341549810447000,8.848447021484375,-0.0006108652451075613,-0.04764748737215996,0.18936823308467865
1790341549826894600,8.86489453125,-0.04642575979232788,0.010995574295520782,0.23151792585849762
1790341549843339300,8.88133935546875,-0.03176499158143997,-0.02382374368607998,0.19914206862449646
1790341549859782700,8.89778271484375,-0.03420845419168472,0.02015855349600315,0.14782938361167908
1790341549876227600,8.9142275390625,-0.04214970022439957,-0.007941247895359993,0.09773843735456467
1790341549892701000,8.930700927734375,0.015271631069481373,0.001832595793530345,0.08124507963657379
1790341549909239800,8.94723974609375,0.019547687843441963,-0.02932153269648552,0.07941248267889023
1790341549925738800,8.96373876953125,-0.004886921960860491,0.018936822190880775,0.08429940044879913
1790341549942186000,8.98018603515625,0.029932396486401558,0.0403171069920063,0.13561208546161652
1790341549958664200,8.996664306640625,0.01038470957428217,0.006108652334660292,0.12339477986097336
1790341549975111700,9.013111572265625,0.06414084881544113,0.11911872029304504,0.12400564551353455
1790341549991559200,9.02955908203125,0.04886921867728233,-0.021991148591041565,0.039095375686883926
1790341550008086500,9.04608642578125,0.02687807008624077,0.06108652427792549,-0.012217304669320583
1790341550024570600,9.062570556640624,0.0403171069920063,0.06841690838336945,-0.04398229718208313
1790341550041096200,9.07909619140625,0.048258353024721146,0.006108652334660292,-0.02321287989616394
1790341550057518600,9.0955185546875,-0.03848451003432274,0.02015855349600315,-0.06780604273080826
1790341550074025000,9.11202490234375,-0.03298672288656235,0.09529497474431992,-0.08796459436416626
1790341550090496500,9.12849658203125,-0.05803219974040985,-0.009162978269159794,-0.06108652427792549
1790341550106951200,9.144951171875,-0.09162978827953339,0.03237585723400116,-0.036041051149368286
1790341550123402500,9.161402587890626,-0.025045474991202354,0.07330382615327835,-0.06780604273080826
1790341550139875000,9.177875,-0.06108652427792549,-0.042760565876960754,-0.0708603709936142
1790341550156365300,9.194365234375,-0.09407325088977814,0.05253441259264946,-0.030543262138962746
1790341550172845600,9.210845458984375,-0.03848451003432274,0.013439035043120384,-0.00855211354792118
1790341550189334000,9.227333984375,-0.05864306539297104,0.02015855349600315,0.051312681287527084
1790341550205860600,9.243860595703126,-0.03237585723400116,0.060475658625364304,0.09224065393209457
1790341550222338600,9.260338623046875,0.025656340643763542,-0.05864306539297104,0.04948008432984352
1790341550238686500,9.2766865234375,0.015882495790719986,0.02321287989616394,0.02871066704392433
1790341550255217700,9.2932177734375,0.036651913076639175,0.03420845419168472,-0.05864306539297104
1790341550271705000,9.309705078125,0.04764748737215996,0.033597588539123535,-0.07024950534105301
1790341550288231400,9.3262314453125,0.012217304669320583,-0.01771509274840355,-0.09773843735456467
1790341550304682000,9.342681884765625,-0.048258353024721146,-0.025656340643763542,-0.1716531366109848
1790341550321158000,9.359157958984374,-0.06963863968849182,-0.04337143152952194,-0.15332718193531036
1790341550337610500,9.375610595703124,-0.04459316283464432,-0.08002334833145142,-0.16065755486488342
1790341550354059800,9.392059814453125,-0.1771509200334549,-0.03726277872920036,-0.16432274878025055
1790341550370527700,9.40852783203125,-0.21991148591041565,0.0354301854968071,-0.09468411654233932
1790341550386974200,9.42497412109375,-0.18814650177955627,-0.033597588539123535,-0.0708603709936142
1790341550403464200,9.441464111328125,-0.2376265823841095,0.00427605677396059,-0.08979719132184982
1790341550419913500,9.45791357421875,-0.20952677726745605,0.08307767659425735,0.02382374368607998
1790341550436364800,9.47436474609375,-0.07269296050071716,-0.019547687843441963,0.03298672288656235
1790341550452888800,9.490888916015624,-0.09651670604944229,0.03298672288656235,-0.009162978269159794
1790341550469359900,9.50735986328125,-0.02382374368607998,0.0354301854968071,0.03237585723400116
1790341550485864700,9.52386474609375,0.016493361443281174,-0.029932396486401558,-0.02932153269648552
1790341550502393300,9.540393310546875,-0.01160643994808197,0.012828170321881771,-0.10995574295520782
1790341550518836700,9.556836669921875,0.0403171069920063,-0.013439035043120384,-0.13377949595451355
1790341550535280600,9.57328076171875,0.01038470957428217,-0.03726277872920036,-0.2021963894367218
1790341550551760000,9.589759765625,0.04214970022439957,-0.001832595793530345,-0.18020524084568024
1790341550568205800,9.606205810546875,0.06108652427792549,-0.0507018156349659,-0.18631389737129211
1790341550584652800,9.62265283203125,0.007941247895359993,-0.04703662544488907,-0.13927727937698364
1790341550601043200,9.639043212890625,0.05314527451992035,-0.030543262138962746,-0.04459316283464432
1790341550617536500,9.65553662109375,0.07208210229873657,-0.07391469180583954,0.056810468435287476
1790341550633981400,9.6719814453125,0.06902777403593063,-0.022602014243602753,0.11850785464048386
1790341550650426000,9.688426025390624,0.09773843735456467,-0.031154127791523933,0.13744467496871948
1790341550666872600,9.70487255859375,0.13011430203914642,-0.006108652334660292,0.15393804013729095
1790341550683317200,9.721317138671875,0.17287486791610718,0.02932153269648552,0.19425514340400696
1790341550699794200,9.737794189453124,0.17837265133857727,-0.03176499158143997,0.1472185254096985
1790341550716240600,9.75424072265625,0.13927727937698364,-0.01710422709584236,0.13255776464939117
1790341550732687600,9.7706875,0.08491026610136032,0.021380282938480377,0.013439035043120384
1790341550749215700,9.7872158203125,0.060475658625364304,-0.021991148591041565,-0.014049900695681572
1790341550765702100,9.8037021484375,-0.04764748737215996,-0.001832595793530345,-0.0507018156349659
1790341550782198000,9.820197998046876,-0.048258353024721146,0.05619960278272629,-0.07513642311096191
1790341550798644700,9.836644775390624,-0.04764748737215996,-0.03726277872920036,-0.08979719132184982
1790341550815093000,9.853093017578125,-0.1062905490398407,0.04459316283464432,-0.10323622822761536
1790341550831544000,9.8695439453125,-0.08857546001672745,0.001832595793530345,-0.007941247895359993
1790341550848028700,9.886028564453126,-0.08307767659425735,0.018325956538319588,0.031154127791523933
1790341550864548900,9.902548828125,-0.0659734457731247,0.00427605677396059,0.060475658625364304
1790341550881012000,9.919011962890625,-0.013439035043120384,-0.0024434609804302454,0.08674286305904388
1790341550897518800,9.935518798828125,0.05619960278272629,-0.04886921867728233,0.08368854224681854
1790341550913991000,9.951990966796876,0.024434609338641167,-0.02687807008624077,-0.02932153269648552
1790341550930514700,9.9685146484375,0.04886921867728233,-0.009162978269159794,-0.051312681287527084
1790341550947039500,9.98503955078125,0.029932396486401558,-0.11178833991289139,-0.1014036312699318
1790341550963490800,10.00149072265625,-0.07024950534105301,-0.006719517521560192,-0.23579397797584534
1790341550979942000,10.01794189453125,-0.04092797264456749,-0.02321287989616394,-0.1563815027475357
1790341550996421400,10.03442138671875,-0.04948008432984352,-0.07269296050071716,-0.14416420459747314
1790341551012871700,10.05087158203125,-0.18814650177955627,-0.02015855349600315,-0.1007927656173706
1790341551029322200,10.067322265625,-0.20463985204696655,-0.01038470957428217,-0.08429940044879913
1790341551045772000,10.08377197265625,-0.27000242471694946,-0.045204028487205505,0.01466076634824276
1790341551062080800,10.100080810546874,-0.2816088795661926,0.04581489413976669,0.0861319974064827
1790341551078424300,10.11642431640625,-0.1918116807937622,-0.05864306539297104,0.054367005825042725
1790341551094871300,10.132871337890625,-0.21380282938480377,-0.01466076634824276,0.05864306539297104
1790341551111317800,10.14931787109375,-0.16982053220272064,0.029932396486401558,0.07819075137376785
1790341551127766000,10.16576611328125,-0.09224065393209457,-0.051312681287527084,-0.01160643994808197
1790341551144215300,10.18221533203125,-0.15027284622192383,0.02015855349600315,-0.10201449692249298
1790341551160663000,10.1986630859375,-0.1111774742603302,0.029932396486401558,-0.15271630883216858
1790341551177107700,10.215107666015625,-0.08857546001672745,-0.012217304669320583,-0.22602014243602753
1790341551193586200,10.231586181640624,-0.12400564551353455,-0.04581489413976669,-0.2370157092809677
1790341551210035200,10.24803515625,-0.20097467303276062,0.01710422709584236,-0.22540926933288574
1790341551226485200,10.2644853515625,-0.10995574295520782,0.03726277872920036,-0.08674286305904388
1790341551242961700,10.280961669921876,-0.10445795953273773,-0.04642575979232788,0.009773843921720982
1790341551259410200,10.29741015625,-0.1264491081237793,0.056810468435287476,0.08735372871160507
1790341551275859500,10.313859375,0.001832595793530345,0.0354301854968071,0.10506882518529892
1790341551292307200,10.33030712890625,-0.022602014243602753,0.009773843921720982,0.08674286305904388
1790341551308769000,10.34676904296875,0.01466076634824276,0.08002334833145142,0.08246681094169617
1790341551325218300,10.36321826171875,0.07696902006864548,0.03848451003432274,0.12400564551353455
1790341551341665500,10.37966552734375,0.03726277872920036,0.0555887371301651,0.02321287989616394
1790341551358153700,10.39615380859375,0.04153883829712868,0.03787364438176155,-0.031154127791523933
1790341551374644700,10.412644775390625,0.05803219974040985,0.006719517521560192,-0.03481931984424591
1790341551391150800,10.42915087890625,0.05864306539297104,0.00427605677396059,-0.09285151958465576
1790341551407594800,10.4455947265625,0.033597588539123535,-0.0354301854968071,-0.17470745742321014
1790341551424041000,10.462041015625,-0.02076941914856434,-0.03481931984424591,-0.16920967400074005
1790341551440522000,10.47852197265625,-0.04153883829712868,-0.06658431142568588,-0.18020524084568024
1790341551456972800,10.494972900390625,-0.02626720629632473,0.012828170321881771,-0.09957103431224823
1790341551473422300,10.51142236328125,-0.056810468435287476,-0.06902777403593063,-0.06169738993048668
1790341551489919000,10.5279189453125,-0.036651913076639175,0.04214970022439957,-0.04764748737215996
1790341551506403600,10.544403564453125,0.02871066704392433,-0.051312681287527084,0.09651670604944229
1790341551522883600,10.560883544921875,-0.021380282938480377,-0.018325956538319588,0.1111774742603302
1790341551539330600,10.57733056640625,-0.02321287989616394,0.01710422709584236,0.18570303916931152
1790341551555808800,10.593808837890625,0.08124507963657379,-0.03176499158143997,0.21441370248794556
1790341551572297000,10.610296875,0.06780604273080826,-0.00733038317412138,0.16432274878025055
1790341551588744700,10.62674462890625,0.024434609338641167,0.003054326167330146,0.1820378452539444
1790341551604204000,10.6422041015625,0.1264491081237793,0.048258353024721146,0.14049901068210602
1790341551620650500,10.658650390625,0.14233160018920898,-0.027488935738801956,0.0708603709936142
1790341551637140200,10.67514013671875,0.01160643994808197,0.03237585723400116,-0.04153883829712868
1790341551653616600,10.69161669921875,0.039706241339445114,0.03298672288656235,-0.11178833991289139
1790341551670060000,10.70806005859375,-0.04153883829712868,-0.03787364438176155,-0.17104226350784302
1790341551686474000,10.724473876953125,-0.09162978827953339,0.00366519158706069,-0.16065755486488342
1790341551702946000,10.740946044921875,0.00366519158706069,0.04581489413976669,-0.03726277872920036
1790341551719455000,10.757455078125,-0.006108652334660292,-0.09407325088977814,-0.036651913076639175
1790341551735934700,10.773934814453124,-0.07941248267889023,0.036041051149368286,0.0403171069920063
1790341551752388000,10.79038818359375,0.07757988572120667,-0.01038470957428217,0.13439035415649414
1790341551768835300,10.80683544921875,-0.01771509274840355,-0.0507018156349659,0.15821409225463867
1790341551785306400,10.823306396484375,-0.021991148591041565,0.03176499158143997,0.07696902006864548
1790341551801778700,10.83977880859375,0.11911872029304504,0.0012217304902151227,0.001832595793530345
1790341551818225200,10.85622509765625,0.02015855349600315,-0.0708603709936142,-0.003054326167330146
1790341551834712600,10.872712646484375,0.02932153269648552,0.06230825558304787,0.04214970022439957
1790341551851203800,10.889203857421874,0.056810468435287476,-0.02321287989616394,-0.04764748737215996
1790341551867663600,10.90566357421875,-0.01710422709584236,-0.05253441259264946,-0.10567969083786011
1790341551884110600,10.922110595703124,-0.04337143152952194,-0.01771509274840355,-0.0507018156349659
1790341551900591000,10.938591064453124,-0.005497787147760391,-0.03481931984424591,-0.10934487730264664
1790341551917038000,10.9550380859375,-0.07819075137376785,-0.031154127791523933,-0.14294247329235077
1790341551933580300,10.971580322265625,-0.06902777403593063,0.03481931984424591,-0.13255776464939117
1790341551950028800,10.98802880859375,-0.031154127791523933,-0.001832595793530345,-0.17043140530586243
1790341551966505700,11.004505615234375,-0.09529497474431992,0.03298672288656235,-0.08674286305904388
1790341551982981600,11.020981689453125,-0.07147123664617538,0.01466076634824276,0.04337143152952194
1790341551999454500,11.037454345703125,-0.0861319974064827,0.04092797264456749,0.1215621829032898
1790341552015930400,11.053930419921874,-0.036041051149368286,-0.0012217304902151227,0.11850785464048386
1790341552032382500,11.070382568359374,-0.06841690838336945,0.045204028487205505,0.14416420459747314
1790341552048828700,11.08682861328125,-0.00366519158706069,0.0555887371301651,0.22540926933288574
1790341552065243000,11.103242919921875,-0.031154127791523933,-0.0659734457731247,0.04886921867728233
1790341552081728800,11.119728759765625,-0.05009094998240471,0.08185594528913498,-0.012828170321881771
1790341552098188300,11.136188232421874,0.0806342139840126,-0.05253441259264946,-0.18081611394882202
1790341552114635500,11.152635498046875,-0.04948008432984352,-0.0354301854968071,-0.17959438264369965
1790341552131080400,11.16908056640625,0.04153883829712868,0.04703662544488907,-0.22968533635139465
1790341552147526400,11.1855263671875,0.05192354694008827,-0.05803219974040985,-0.18081611394882202
1790341552163973000,11.20197314453125,0.00427605677396059,0.0012217304902151227,-0.13500121235847473
1790341552180448800,11.21844873046875,0.033597588539123535,0.05925392732024193,-0.05864306539297104
1790341552196912000,11.234912109375,0.08491026610136032,-0.013439035043120384,0.09162978827953339
1790341552213359000,11.251359130859376,0.06352998316287994,0.0403171069920063,0.12095131725072861
1790341552229836000,11.2678359375,0.15271630883216858,0.05009094998240471,0.14538592100143433
1790341552246285000,11.28428515625,0.2278527319431305,-0.06658431142568588,0.10323622822761536
1790341552262734600,11.300734619140625,0.10934487730264664,0.03420845419168472,0.14294247329235077
1790341552279020500,11.3170205078125,0.16920967400074005,-0.03176499158143997,0.07391469180583954
1790341552295470600,11.333470703125,0.09285151958465576,-0.06414084881544113,0.016493361443281174
1790341552311936000,11.34993603515625,0.03848451003432274,0.02382374368607998,0.04581489413976669
1790341552328423200,11.366423095703125,0.08429940044879913,-0.05253441259264946,0.013439035043120384
1790341552344902100,11.382902099609375,0.02932153269648552,0.003054326167330146,0.00427605677396059
1790341552361393400,11.399393310546875,0.021991148591041565,0.030543262138962746,-0.09162978827953339
1790341552377867500,11.415867431640624,0.05803219974040985,0.019547687843441963,-0.025045474991202354
1790341552394369300,11.432369384765625,0.06291911751031876,0.012217304669320583,-0.06902777403593063
1790341552410858000,11.44885791015625,-0.018936822190880775,0.031154127791523933,-0.05192354694008827
1790341552427370200,11.465370361328125,0.01771509274840355,0.042760565876960754,0.04214970022439957
1790341552443836200,11.481836181640626,0.09346238523721695,0.042760565876960754,-0.015271631069481373
1790341552460326100,11.498326171875,-0.009162978269159794,0.02687807008624077,0.021380282938480377
1790341552476805400,11.514805419921874,0.04764748737215996,0.036041051149368286,0.11423180252313614
1790341552493257000,11.531257080078126,0.0861319974064827,-0.02382374368607998,0.09468411654233932
1790341552509734400,11.547734375,0.08185594528913498,-0.045204028487205505,0.07452555745840073
1790341552526180000,11.56418017578125,0.15821409225463867,-0.07269296050071716,0.07147123664617538
1790341552542656300,11.58065625,0.16554448008537292,-0.08124507963657379,0.005497787147760391
1790341552559103700,11.597103759765625,0.16371189057826996,-0.05192354694008827,-0.03787364438176155
1790341552575489500,11.613489501953126,0.192422553896904,-0.09407325088977814,-0.10995574295520782
1790341552591961600,11.629961669921874,0.1472185254096985,-0.02932153269648552,-0.11911872029304504
1790341552608341200,11.64634130859375,0.12278391420841217,-0.018325956538319588,-0.13439035415649414
1790341552624832000,11.66283203125,0.0806342139840126,-0.05619960278272629,-0.21502456068992615
1790341552641277200,11.679277099609376,0.009162978269159794,-0.009773843921720982,-0.17592918872833252
1790341552657725200,11.69572509765625,0.013439035043120384,-0.01038470957428217,-0.14782938361167908
1790341552674176800,11.7121767578125,-0.03848451003432274,-0.025656340643763542,-0.07819075137376785
1790341552690669600,11.728669677734375,-0.06719517707824707,0.025656340643763542,-0.012828170321881771
1790341552707175200,11.745175048828125,-0.025656340643763542,0.0659734457731247,0.03176499158143997
1790341552723684900,11.761684814453124,-0.09162978827953339,-0.009773843921720982,0.12217304855585098
1790341552740134000,11.7781337890625,-0.13500121235847473,0.09040805697441101,0.16859880089759827
1790341552756611800,11.79461181640625,-0.17348572611808777,-0.05314527451992035,-0.1618792861700058
1790341552773060600,11.811060546875,-0.2675589919090271,0.0403171069920063,-0.11362093687057495
1790341552789535700,11.82753564453125,-0.1368338167667389,-0.0012217304902151227,-0.0555887371301651
1790341552805982000,11.84398193359375,-0.15332718193531036,-0.05619960278272629,-0.14844025671482086
1790341552822429000,11.860428955078126,-0.19364428520202637,0.0959058403968811,-0.07452555745840073
1790341552838905900,11.87690576171875,-0.01771509274840355,-0.051312681287527084,-0.022602014243602753
1790341552855395300,11.893395263671875,0.018325956538319588,-0.04214970022439957,0.01710422709584236
1790341552871871500,11.90987158203125,0.07208210229873657,0.01038470957428217,-0.021991148591041565
1790341552888317400,11.9263173828125,0.14233160018920898,0.02932153269648552,0.10018189996480942
1790341552904762400,11.942762451171875,0.16554448008537292,0.03848451003432274,-0.07880161702632904
1790341552921256000,11.959255859375,0.2932153046131134,-0.18020524084568024,-0.24923302233219147
1790341552937702400,11.975702392578125,0.1362229436635971,0.11484266817569733,-0.10934487730264664
1790341552954119000,11.992118896484374,0.14966198801994324,0.01466076634824276,-0.01771509274840355
1790341552970594800,12.0085947265625,0.04581489413976669,-0.1661553531885147,-0.10995574295520782
1790341552987053000,12.025052978515625,-0.015271631069481373,0.16798794269561768,0.04337143152952194
1790341553003499800,12.041499755859375,-0.2376265823841095,0.03237585723400116,0.09346238523721695
1790341553019949000,12.057948974609374,-0.394008070230484,0.23884831368923187,0.16798794269561768
1790341553036401000,12.07440087890625,-0.14538592100143433,-0.015271631069481373,0.33047810196876526
1790341553052900600,12.090900634765624,-0.2217440903186798,0.24495697021484375,0.16798794269561768
1790341553069350400,12.107350341796876,-0.14294247329235077,-0.13805554807186127,0.11056660860776901
1790341553085800700,12.12380078125,-0.09285151958465576,-0.02382374368607998,-0.304210901260376
1790341553102252800,12.140252685546875,-0.11484266817569733,-0.08674286305904388,-0.3078760802745819
1790341553118658600,12.156658447265626,-0.04764748737215996,-0.0659734457731247,-0.3139847218990326
1790341553135080700,12.173080810546875,0.05192354694008827,-0.0861319974064827,-0.18875735998153687
1790341553151496200,12.18949609375,-0.003054326167330146,-0.22418753802776337,-0.21930062770843506
1790341553167961600,12.205961669921875,0.10995574295520782,0.04214970022439957,-0.14905111491680145
1790341553184411600,12.22241162109375,0.3439171314239502,-0.07452555745840073,-0.1508837193250656
1790341553200863700,12.23886376953125,0.34574973583221436,0.039095375686883926,-0.43737950921058655
1790341553217346000,12.255345947265624,0.4056145250797272,-0.1667662113904953,-0.4331034719944
1790341553233795300,12.27179541015625,0.4337143301963806,0.033597588539123535,-0.3017674386501312
1790341553250244000,12.288244140625,0.2981022298336029,0.021991148591041565,-0.16859880089759827
1790341553266696000,12.304696044921876,0.19547687470912933,-0.23518311977386475,-0.2742784917354584
1790341553283095800,12.321095703125,-0.242513507604599,0.3885102868080139,-0.12828169763088226
1790341553299544000,12.3375439453125,0.00855211354792118,0.15393804013729095,-0.10751228034496307
1790341553315989500,12.353989501953125,-0.3738495409488678,-0.4043927788734436,0.018936822190880775
1790341553332434400,12.370434326171875,-0.8069530129432678,0.3188716471195221,0.4349360466003418
1790341553348878600,12.386878662109375,-0.3903428912162781,0.5894849896430969,0.5687155723571777
1790341553365327600,12.40332763671875,-0.403781920671463,-0.23457226157188416,0.3072652220726013
1790341553381775000,12.419775146484374,-0.455705463886261,0.34208452701568604,0.0959058403968811
1790341553398222300,12.436222412109375,-0.10873401165008545,-0.16371189057826996,0.04337143152952194
1790341553414682400,12.452682373046875,-0.10873401165008545,-0.06108652427792549,-0.27061331272125244
1790341553431127000,12.469126953125,0.11056660860776901,0.16798794269561768,-0.3695734739303589
1790341553447571500,12.485571533203125,0.09468411654233932,-0.048258353024721146,-0.5265658497810364
1790341553464048000,12.502048095703126,0.1973094791173935,0.0354301854968071,-0.251676470041275
1790341553480494800,12.518494873046874,0.33719760179519653,-0.039095375686883926,0.0012217304902151227
1790341553496942600,12.534942626953125,0.39767327904701233,-0.0024434609804302454,0.22540926933288574
1790341553513388800,12.551388916015625,0.4703662395477295,0.031154127791523933,0.4954117238521576
1790341553529832200,12.567832275390625,0.5002986192703247,0.07269296050071716,0.5393940210342407
1790341553546275000,12.584275146484375,0.4141666293144226,-0.08307767659425735,0.4349360466003418
1790341553562718000,12.600718017578124,0.26022860407829285,0.05864306539297104,0.2474004179239273
1790341553579121400,12.617121337890625,0.22846360504627228,0.10018189996480942,0.1160643994808197
1790341553595566600,12.633566650390625,0.10506882518529892,0.01160643994808197,-0.03298672288656235
1790341553612025600,12.650025634765624,-0.07208210229873657,0.07880161702632904,-0.08246681094169617
1790341553628473300,12.666473388671875,-0.12889257073402405,0.07208210229873657,0.04703662544488907
1790341553644921600,12.682921630859376,-0.17959438264369965,0.03726277872920036,0.2174680233001709
1790341553661398800,12.699398681640625,-0.22052235901355743,-0.013439035043120384,0.35613444447517395
1790341553677843000,12.715843017578125,-0.3640756905078888,0.09529497474431992,0.4593706727027893
1790341553694287000,12.732287109375,-0.2370157092809677,0.06169738993048668,0.4153883755207062
1790341553710762800,12.7487626953125,-0.08552113175392151,0.02076941914856434,0.3439171314239502
1790341553727210000,12.7652099609375,0.06230825558304787,0.1270599663257599,0.2687807083129883
1790341553743658000,12.781657958984376,0.1466076523065567,0.13316862285137177,0.12095131725072861
1790341553760106200,12.798106201171874,0.18875735998153687,-0.06780604273080826,-0.04948008432984352
1790341553776554200,12.81455419921875,0.21013765037059784,0.048258353024721146,-0.19853121042251587
1790341553793003800,12.831003662109374,0.2993239760398865,-0.0354301854968071,-0.2119702398777008
1790341553809448200,12.8474482421875,0.3323107063770294,-0.09957103431224823,-0.2779437005519867
1790341553825896400,12.863896484375,0.23457226157188416,-0.054367005825042725,-0.2834414839744568
1790341553842343200,12.88034326171875,0.21380282938480377,-0.06780604273080826,-0.27977627515792847
1790341553858793000,12.89679296875,0.12828169763088226,-0.11667526513338089,-0.20830504596233368
1790341553875239000,12.913239013671875,0.05009094998240471,-0.0354301854968071,-0.08857546001672745
1790341553891686700,12.929686767578126,-0.012828170321881771,-0.11484266817569733,-0.10445795953273773
1790341553908163800,12.946163818359375,-0.12034045159816742,-0.11789698898792267,-0.0354301854968071
1790341553924610300,12.9626103515625,-0.1417207419872284,-0.05314527451992035,0.009773843921720982
1790341553941056300,12.97905615234375,-0.3023782968521118,-0.08918632566928864,0.04948008432984352
1790341553957464800,12.99546484375,-0.3683517575263977,0.00427605677396059,0.019547687843441963
1790341553973913900,13.011913818359375,-0.2577851414680481,-0.02932153269648552,0.02932153269648552
1790341553990363100,13.028363037109376,-0.3072652220726013,-0.04337143152952194,-0.02015855349600315
1790341554006811000,13.044810791015625,-0.33108896017074585,0.11301007121801376,-0.027488935738801956
1790341554023257900,13.0612578125,-0.20891591906547546,0.01466076634824276,-0.1459967941045761
1790341554039704300,13.077704345703125,-0.22846360504627228,0.004886921960860491,-0.2571742534637451
1790341554056116500,13.094116455078124,-0.1820378452539444,0.06841690838336945,-0.3090978264808655
1790341554072532500,13.110532470703125,-0.08429940044879913,-0.0757472887635231,-0.36224308609962463
1790341554088910000,13.12691015625,-0.14844025671482086,-0.08857546001672745,-0.4050036668777466
1790341554105359000,13.143359130859375,-0.1569923609495163,-0.06658431142568588,-0.32986724376678467
1790341554121805800,13.159805908203126,-0.0861319974064827,-0.07880161702632904,-0.25595253705978394
1790341554138252800,13.176252685546874,-0.056810468435287476,-0.1362229436635971,-0.26022860407829285
1790341554154722600,13.19272265625,0.015882495790719986,-0.045204028487205505,-0.19547687470912933
1790341554171170600,13.209170654296875,0.060475658625364304,-0.08979719132184982,-0.16004669666290283
1790341554187623000,13.225622802734375,0.01038470957428217,-0.04886921867728233,-0.0757472887635231
1790341554204155100,13.242155029296875,0.11911872029304504,-0.02626720629632473,0.00427605677396059
1790341554220602000,13.25860205078125,0.19792033731937408,0.0024434609804302454,0.07757988572120667
1790341554237049900,13.2750498046875,0.32070425152778625,0.07757988572120667,0.12034045159816742
1790341554253495300,13.291495361328124,0.37201693654060364,-0.003054326167330146,0.07819075137376785
1790341554269942000,13.30794189453125,0.2669481039047241,0.01710422709584236,0.015271631069481373
1790341554286324500,13.324324462890624,0.21807889640331268,-0.02626720629632473,-0.006719517521560192
1790341554302770400,13.3407705078125,0.14905111491680145,0.00733038317412138,0.021991148591041565
1790341554319216400,13.35721630859375,0.10445795953273773,-0.08368854224681854,-0.036041051149368286
1790341554335685000,13.37368505859375,0.09529497474431992,-0.010995574295520782,-0.051312681287527084
1790341554352173600,13.390173583984375,0.0354301854968071,-0.0024434609804302454,0.09529497474431992
1790341554368634600,13.406634521484374,0.05009094998240471,-0.02687807008624077,0.09773843735456467
1790341554385077200,13.4230771484375,0.08246681094169617,-0.02871066704392433,0.056810468435287476
1790341554401545200,13.439545166015625,0.11362093687057495,-0.06414084881544113,0.0959058403968811
1790341554417986300,13.455986328125,0.17531833052635193,-0.05803219974040985,0.09896016865968704
1790341554434431200,13.47243115234375,0.19608774781227112,-0.012828170321881771,0.04092797264456749
1790341554450900500,13.488900390625,0.21319197118282318,-0.006719517521560192,-0.018325956538319588
1790341554467341000,13.505341064453125,0.21991148591041565,-0.10384709388017654,-0.09040805697441101
1790341554483780900,13.52178076171875,0.26083946228027344,-0.07269296050071716,-0.13011430203914642
1790341554500222200,13.53822216796875,0.2889392673969269,-0.056810468435287476,-0.02932153269648552
1790341554516667600,13.554667724609375,0.32131510972976685,-0.03848451003432274,-0.021380282938480377
1790341554533114000,13.571114013671876,0.39584067463874817,-0.11239920556545258,-0.09407325088977814
1790341554549559000,13.58755908203125,0.5754350423812866,-0.2021963894367218,-0.11178833991289139
1790341554566007000,13.604007080078125,0.8539896011352539,-0.24007004499435425,0.039095375686883926
1790341554582455600,13.62045556640625,1.017701506614685,-0.14416420459747314,0.09346238523721695
1790341554598902500,13.636902587890624,1.0018190145492554,-0.12339477986097336,0.08735372871160507
1790341554615351300,13.653351318359375,0.7922922372817993,-0.05375614017248154,0.02382374368607998
1790341554631777000,13.669777099609375,0.4746423065662384,-0.036041051149368286,0.03298672288656235
1790341554648246300,13.686246337890625,0.17287486791610718,0.10812314599752426,0.08368854224681854
1790341554664689400,13.702689453125,-0.06536258012056351,-0.021991148591041565,0.1062905490398407
1790341554681131300,13.71913134765625,-0.07208210229873657,-0.04703662544488907,0.06475171446800232
1790341554697604600,13.7356044921875,-0.06230825558304787,-0.11239920556545258,-0.0006108652451075613
1790341554714067000,13.75206689453125,-0.04764748737215996,-0.14233160018920898,0.05497787147760391
1790341554730549200,13.76854931640625,-0.08246681094169617,-0.04337143152952194,0.10201449692249298
1790341554746998800,13.784998779296876,-0.13011430203914642,-0.039095375686883926,0.05009094998240471
1790341554763476500,13.8014765625,-0.15454891324043274,-0.03420845419168472,0.028099801391363144
1790341554779924000,13.817924072265624,-0.17531833052635193,0.0403171069920063,0.054367005825042725
1790341554796378400,13.83437841796875,-0.14782938361167908,0.00855211354792118,0.1111774742603302
1790341554812857600,13.850857666015624,-0.09896016865968704,0.027488935738801956,0.18814650177955627
1790341554829305300,13.867305419921875,-0.048258353024721146,0.10018189996480942,0.2785545587539673
1790341554845783000,13.883782958984375,-0.04092797264456749,0.20097467303276062,0.37201693654060364
1790341554862232300,13.900232421875,-0.05803219974040985,0.0659734457731247,0.5155702829360962
1790341554878678500,13.916678466796874,-0.033597588539123535,0.05925392732024193,0.5962044596672058
1790341554895148800,13.933148681640626,0.02932153269648552,0.32498031854629517,0.5833762884140015
1790341554911596800,13.9495966796875,0.04398229718208313,0.0959058403968811,0.4349360466003418
1790341554928072700,13.96607275390625,-0.0354301854968071,-0.22418753802776337,0.0708603709936142
1790341554944546800,13.982546875,-0.005497787147760391,-0.04886921867728233,-0.252287358045578
1790341554960970800,13.998970703125,0.03481931984424591,0.030543262138962746,-0.4043927788734436
1790341554977380400,14.01538037109375,0.0555887371301651,-0.06780604273080826,-0.3433062732219696
1790341554993827300,14.031827392578125,0.01710422709584236,0.04337143152952194,-0.21074850857257843
1790341555010305500,14.048305419921874,-0.02076941914856434,0.039095375686883926,-0.051312681287527084
1790341555026803000,14.064802978515624,-0.009773843921720982,0.003054326167330146,0.04764748737215996
1790341555043288600,14.08128857421875,0.02382374368607998,0,0.08429940044879913
1790341555059701800,14.09770166015625,-0.036651913076639175,0.03237585723400116,-0.08246681094169617
1790341555076169700,14.114169677734376,-0.015882495790719986,0.024434609338641167,-0.11362093687057495
1790341555092646700,14.130646728515625,-0.04153883829712868,-0.1111774742603302,-0.2535090744495392
1790341555109092900,14.1470927734375,-0.02321287989616394,0.08307767659425735,-0.08002334833145142
1790341555125542400,14.16354248046875,-0.009162978269159794,0.0659734457731247,-0.001832595793530345
1790341555142052600,14.180052490234376,-0.01160643994808197,-0.13439035415649414,0.20525072515010834
1790341555158497800,14.196497802734376,0.02626720629632473,0.08307767659425735,0.3640756905078888
1790341555174944500,14.212944580078124,0.05009094998240471,-0.14477506279945374,0.5180137157440186
1790341555191419600,14.229419677734375,-0.02321287989616394,-0.01466076634824276,0.5943718552589417
1790341555207865000,14.245864990234375,-0.04214970022439957,0.0354301854968071,0.6316346526145935
1790341555224309800,14.262309814453126,0.0024434609804302454,-0.21807889640331268,0.6572909951210022
1790341555240754000,14.27875390625,0.022602014243602753,0.054367005825042725,0.6230825781822205
1790341555257203000,14.295202880859375,0.04153883829712868,-0.02382374368607998,0.5387831330299377
1790341555273652000,14.31165185546875,0.019547687843441963,-0.12400564551353455,0.44165557622909546
1790341555290105300,14.328105224609375,-0.01160643994808197,0.015271631069481373,0.32070425152778625
1790341555306495500,14.34449560546875,-0.02321287989616394,-0.0354301854968071,0.16920967400074005
1790341555322944000,14.360944091796876,-0.014049900695681572,0.04764748737215996,0.08857546001672745
1790341555339435000,14.37743505859375,0.012217304669320583,-0.03726277872920036,-0.013439035043120384
1790341555355931600,14.393931640625,0.015882495790719986,0.051312681287527084,-0.08735372871160507
1790341555372375300,14.410375244140624,-0.018936822190880775,0.03787364438176155,-0.10323622822761536
1790341555388877800,14.4268779296875,-0.029932396486401558,-0.0024434609804302454,-0.0959058403968811
1790341555405347600,14.44334765625,-0.0024434609804302454,-0.05253441259264946,-0.05619960278272629
1790341555421848300,14.459848388671874,-0.007941247895359993,0.08979719132184982,-0.036041051149368286
1790341555438372000,14.4763720703125,-0.0012217304902151227,-0.06414084881544113,-0.004886921960860491
1790341555454814000,14.49281396484375,-0.01038470957428217,-0.09712757170200348,-0.01160643994808197
1790341555471301600,14.509301513671875,0.007941247895359993,0.0861319974064827,-0.10323622822761536
1790341555487743000,14.525742919921875,0.06902777403593063,-0.09162978827953339,-0.2981022298336029
1790341555504186400,14.542186279296875,0.07757988572120667,0.07941248267889023,-0.4795292317867279
1790341555520633000,14.558633056640625,0.06719517707824707,0.13011430203914642,-0.6120869517326355
1790341555537085000,14.5750849609375,0.048258353024721146,0.010995574295520782,-0.7061602473258972
1790341555553532700,14.59153271484375,0.018325956538319588,-0.06352998316287994,-0.7232644557952881
1790341555569981200,14.607981201171874,0.010995574295520782,-0.02015855349600315,-0.7312057018280029
1790341555586484200,14.624484130859376,0.013439035043120384,-0.022602014243602753,-0.645684540271759
1790341555602969300,14.64096923828125,0.012217304669320583,-0.02382374368607998,-0.49235737323760986
1790341555619413000,14.6574130859375,0.02015855349600315,-0.0959058403968811,-0.3494149148464203
1790341555635867100,14.6738671875,0.012217304669320583,-0.08002334833145142,-0.17776179313659668
1790341555652309500,14.6903095703125,0.01710422709584236,-0.08124507963657379,-0.0507018156349659
1790341555668809200,14.706809326171875,0.04153883829712868,-0.08185594528913498,0.02687807008624077
1790341555685332000,14.72333203125,0.07024950534105301,0.018325956538319588,0.06414084881544113
1790341555701778700,14.73977880859375,0.08552113175392151,0.04642575979232788,0.09224065393209457
1790341555718225700,14.7562255859375,0.07513642311096191,0.11911872029304504,-0.00427605677396059
1790341555734670600,14.772670654296874,0.11423180252313614,0.08735372871160507,-0.25534167885780334
1790341555751116800,14.78911669921875,0.1362229436635971,-0.07635815441608429,-0.403781920671463
1790341555767561500,14.8055615234375,0.192422553896904,-0.11911872029304504,-0.43249258399009705
1790341555784010500,14.822010498046875,0.22846360504627228,-0.08796459436416626,-0.42577308416366577
1790341555800456700,14.838456787109376,0.19058994948863983,0.01038470957428217,-0.37140607833862305
1790341555816906800,14.85490673828125,0.10751228034496307,0.09773843735456467,-0.33047810196876526
1790341555833356800,14.871356689453124,-0.029932396486401558,0.13561208546161652,-0.2583959996700287
1790341555849806000,14.88780615234375,-0.2724458873271942,0.10995574295520782,-0.1215621829032898
1790341555866251000,14.9042509765625,-0.4660901725292206,0.04459316283464432,-0.021991148591041565
1790341555882722300,14.920722412109376,-0.5760459303855896,0.08002334833145142,0.11362093687057495
1790341555899169000,14.9371689453125,-0.616973876953125,0.06658431142568588,0.17959438264369965
1790341555915613400,14.953613525390624,-0.6139195561408997,0.07452555745840073,0.21319197118282318
1790341555932087000,14.970087158203125,-0.494189977645874,0.01771509274840355,0.24862214922904968
1790341555948530700,14.98653076171875,-0.22052235901355743,0.06658431142568588,0.2919935882091522
1790341555964976400,15.002976318359375,0.07757988572120667,-0.05864306539297104,0.27122417092323303
1790341555981259300,15.01925927734375,-0.001832595793530345,-0.015882495790719986,0.21013765037059784
1790341555997707500,15.03570751953125,-0.0006108652451075613,0.00733038317412138,0.13561208546161652
1790341556014176800,15.0521767578125,-0.0024434609804302454,-0.05497787147760391,0.05619960278272629
1790341556030661400,15.068661376953125,0.01160643994808197,-0.009162978269159794,-0.02687807008624077
1790341556047149300,15.0851494140625,0.019547687843441963,-0.02076941914856434,0.03298672288656235
1790341556063580000,15.101579833984376,-0.014049900695681572,0.03420845419168472,0.003054326167330146
1790341556080050000,15.1180498046875,-0.00427605677396059,-0.10751228034496307,0.01038470957428217
1790341556096494600,15.13449462890625,-0.02382374368607998,0.007941247895359993,-0.03237585723400116
1790341556113514200,15.15151416015625,-0.00733038317412138,-0.022602014243602753,-0.0354301854968071
1790341556129374000,15.1673740234375,0.04948008432984352,0.09834930300712585,-0.02015855349600315
1790341556145821400,15.183821533203124,-0.06291911751031876,0.1612684279680252,-0.03420845419168472
1790341556162302000,15.200302001953125,0.07269296050071716,0.06719517707824707,0.04642575979232788
1790341556178779600,15.216779541015624,-0.06475171446800232,-0.13011430203914642,0.03787364438176155
1790341556195227000,15.233226806640625,0.018325956538319588,0.3139847218990326,0.12095131725072861
1790341556211702800,15.249702880859376,-0.014049900695681572,-0.5406157374382019,0.060475658625364304
1790341556228154000,15.266154052734375,0.08246681094169617,0.009162978269159794,-0.17531833052635193
1790341556244634400,15.28263427734375,-0.04948008432984352,0.2583959996700287,-0.06841690838336945
1790341556261083000,15.299082763671874,-0.04642575979232788,-0.3090978264808655,-0.06352998316287994
1790341556277536800,15.315536865234375,0.02626720629632473,-0.0959058403968811,0.016493361443281174
1790341556294010600,15.3320107421875,-0.016493361443281174,0.10323622822761536,-0.11911872029304504
1790341556310456800,15.348456787109376,-0.0024434609804302454,0.08674286305904388,-0.04214970022439957
1790341556326918100,15.364918212890625,-0.07452555745840073,-0.3072652220726013,-0.2217440903186798
1790341556343365600,15.38136572265625,0.048258353024721146,0.036041051149368286,-0.10995574295520782
1790341556359814400,15.397814453125,-0.059864792972803116,0.08246681094169617,-0.054367005825042725
1790341556376280300,15.4142802734375,0.022602014243602753,-0.1111774742603302,-0.05375614017248154
1790341556392730000,15.430730224609375,-0.039706241339445114,0.2015855312347412,-0.00855211354792118
1790341556409194500,15.447194580078126,-0.025045474991202354,-0.1569923609495163,-0.08491026610136032
1790341556425671400,15.46367138671875,0.021991148591041565,-0.01710422709584236,-0.20341812074184418
1790341556442120400,15.480120361328124,0.00733038317412138,0.1472185254096985,-0.22479841113090515
1790341556458569500,15.496569580078125,-0.009773843921720982,0.19853121042251587,-0.07330382615327835
1790341556475012600,15.5130126953125,-0.03420845419168472,0.0555887371301651,0.11178833991289139
1790341556491462100,15.529462158203126,-0.007941247895359993,-0.3078760802745819,0.11850785464048386
1790341556507909400,15.545909423828125,0.0659734457731247,-0.10506882518529892,0.21441370248794556
1790341556524365300,15.562365234375,0.036651913076639175,-0.03848451003432274,-0.004886921960860491
1790341556540863500,15.578863525390625,-0.07391469180583954,0.4331034719944,-0.34758231043815613
1790341556557313500,15.5953134765625,-0.1814269721508026,-0.6695083379745483,-0.48197266459465027
1790341556573792300,15.611792236328125,0.1160643994808197,0.47769662737846375,-0.1014036312699318
1790341556590206200,15.628206298828125,-0.08124507963657379,0.3897320330142975,0.03237585723400116
1790341556606617000,15.6446171875,0.02321287989616394,-0.5277875661849976,0.2773328125476837
1790341556623083000,15.6610830078125,0.024434609338641167,-0.025045474991202354,0.26939156651496887
1790341556639535000,15.67753515625,-0.03787364438176155,0.3396410644054413,0.16920967400074005
1790341556655918000,15.69391796875,0.02382374368607998,-0.17898350954055786,0.11056660860776901
1790341556672396300,15.710396240234376,0.018325956538319588,-0.07635815441608429,-0.042760565876960754
1790341556688861400,15.726861328125,0,0.1472185254096985,-0.04092797264456749
1790341556705366500,15.743366455078124,-0.012828170321881771,-0.04398229718208313,0.02321287989616394
1790341556721831400,15.75983154296875,0.007941247895359993,-0.036041051149368286,0.1215621829032898
1790341556738277600,15.776277587890625,-0.007941247895359993,-0.00427605677396059,0.15393804013729095
1790341556754722000,15.79272216796875,0.009773843921720982,-0.04764748737215996,0.12767083942890167
1790341556771170600,15.809170654296874,0.007941247895359993,0.05314527451992035,0.0555887371301651
1790341556787691000,15.82569091796875,-0.015882495790719986,0.03481931984424591,-0.006719517521560192
1790341556804179700,15.8421796875,0.00733038317412138,-0.056810468435287476,-0.009773843921720982
1790341556820649000,15.85864892578125,0.006108652334660292,-0.0024434609804302454,0.027488935738801956
1790341556837143300,15.875143310546875,-0.01771509274840355,0.012828170321881771,0.05009094998240471
1790341556853612500,15.891612548828125,0.014049900695681572,-0.028099801391363144,0.0659734457731247
1790341556870111000,15.908111083984375,0.001832595793530345,0.004886921960860491,0.04459316283464432
1790341556886599200,15.92459912109375,-0.007941247895359993,0.024434609338641167,0.0024434609804302454
1790341556903065300,15.9410654296875,0.01466076634824276,-0.025045474991202354,-0.00855211354792118
1790341556919590000,15.95758984375,-0.005497787147760391,0.024434609338641167,-0.009162978269159794
1790341556936069600,15.974069580078124,-0.003054326167330146,-0.028099801391363144,-0.00366519158706069
1790341556952523300,15.990523193359374,0.009162978269159794,0.02076941914856434,0.012828170321881771
1790341556969011200,16.00701123046875,-0.013439035043120384,0.07024950534105301,-0.014049900695681572
1790341556985539600,16.02353955078125,0.00855211354792118,-0.04092797264456749,-0.015882495790719986
1790341557002036000,16.040035888671873,-0.01466076634824276,0.012828170321881771,-0.03726277872920036
1790341557018520000,16.05652001953125,-0.012217304669320583,-0.06719517707824707,-0.04459316283464432
1790341557035003600,16.073003662109375,0.005497787147760391,-0.056810468435287476,-0.013439035043120384
1790341557051490800,16.08949072265625,-0.005497787147760391,-0.05192354694008827,-0.009773843921720982
1790341557067925000,16.105925048828126,-0.007941247895359993,-0.039706241339445114,-0.019547687843441963
1790341557084344000,16.122343994140625,0.018936822190880775,-0.029932396486401558,-0.02687807008624077
1790341557100874200,16.138874267578124,0.00855211354792118,0.013439035043120384,-0.029932396486401558
1790341557117388300,16.15538818359375,-0.0012217304902151227,0.05742133408784866,-0.03420845419168472
1790341557133877500,16.17187744140625,0.007941247895359993,-0.06291911751031876,-0.005497787147760391
1790341557150379000,16.18837890625,-0.00366519158706069,0.033597588539123535,-0.036041051149368286
1790341557166905000,16.204905029296874,0.018325956538319588,-0.018936822190880775,-0.005497787147760391
1790341557183383800,16.2213837890625,-0.004886921960860491,0.05253441259264946,-0.02076941914856434
1790341557199870700,16.23787060546875,0.009773843921720982,0.04459316283464432,-0.033597588539123535
1790341557216358100,16.254358154296874,-0.009162978269159794,-0.006719517521560192,-0.03176499158143997
1790341557232858600,16.270858642578126,0.007941247895359993,-0.0012217304902151227,0.009162978269159794
1790341557249353000,16.28735302734375,-0.009162978269159794,-0.07757988572120667,-0.02321287989616394
1790341557265838800,16.3038388671875,0.01038470957428217,-0.005497787147760391,-0.031154127791523933
1790341557282323500,16.320323486328125,0.009162978269159794,0.01038470957428217,0.005497787147760391
1790341557298809000,16.33680908203125,-0.019547687843441963,-0.05009094998240471,-0.05009094998240471
1790341557315323400,16.353323486328126,0.015271631069481373,0.0006108652451075613,0.04886921867728233
1790341557331863000,16.369863037109376,-0.02015855349600315,-0.009773843921720982,0.031154127791523933
1790341557348339500,16.38633935546875,0.04398229718208313,-0.19853121042251587,0.027488935738801956
1790341557364829000,16.402828857421873,-0.025045474991202354,0.10262536257505417,-0.004886921960860491
1790341557381291500,16.41929150390625,-0.0006108652451075613,-0.015271631069481373,-0.07024950534105301
1790341557397793300,16.435793212890626,0.009773843921720982,-0.13561208546161652,-0.001832595793530345
1790341557414278700,16.452278564453124,-0.03176499158143997,0.09224065393209457,-0.009162978269159794
1790341557430729500,16.4687294921875,0.024434609338641167,-0.14355333149433136,0.02321287989616394
1790341557447174700,16.485174560546874,-0.012828170321881771,0.021991148591041565,-0.0024434609804302454
1790341557463654700,16.501654541015625,0.012217304669320583,0.05742133408784866,-0.042760565876960754
1790341557480156700,16.51815673828125,0,-0.00366519158706069,0.001832595793530345
1790341557496651300,16.5346513671875,-0.024434609338641167,-0.06536258012056351,-0.033597588539123535
1790341557513115100,16.551115234375,0.027488935738801956,-0.022602014243602753,-0.00733038317412138
1790341557529634000,16.567634033203124,-0.01466076634824276,-0.01038470957428217,-0.018936822190880775
1790341557546097700,16.58409765625,0.007941247895359993,0.007941247895359993,-0.012217304669320583
1790341557562602000,16.60060205078125,-0.015271631069481373,0.01160643994808197,-0.012217304669320583
1790341557579099100,16.61709912109375,0.015271631069481373,-0.16004669666290283,-0.006108652334660292
1790341557595584300,16.633584228515623,0.006108652334660292,0.015882495790719986,0.014049900695681572
1790341557612156200,16.65015625,-0.005497787147760391,0.039095375686883926,-0.012828170321881771
1790341557628646000,16.66664599609375,0.0006108652451075613,-0.03848451003432274,0.025656340643763542
1790341557645150700,16.683150634765624,0.005497787147760391,-0.05009094998240471,-0.00427605677396059
1790341557661626000,16.699626220703124,-0.001832595793530345,0.06963863968849182,-0.022602014243602753
1790341557678092800,16.7160927734375,0.007941247895359993,0.02932153269648552,-0.04398229718208313
1790341557694583800,16.732583740234375,-0.018325956538319588,0.08246681094169617,-0.015882495790719986
1790341557711072500,16.749072509765625,0.01710422709584236,-0.16798794269561768,0.03481931984424591
1790341557727563000,16.76556298828125,-0.02015855349600315,0.06719517707824707,0.06841690838336945
1790341557744058400,16.782058349609375,0.013439035043120384,-0.10445795953273773,0.019547687843441963
1790341557760540400,16.79854052734375,0.006108652334660292,-0.006108652334660292,-0.00427605677396059
1790341557777061400,16.815061279296874,-0.01038470957428217,-0.018936822190880775,-0.0659734457731247
1790341557793548800,16.831548828125,0.025656340643763542,-0.015882495790719986,0.0006108652451075613
1790341557810051300,16.84805126953125,-0.012217304669320583,0.05497787147760391,-0.00366519158706069
1790341557826509600,16.864509521484376,0.022602014243602753,0,0.0507018156349659
1790341557842988500,16.880988525390624,-0.022602014243602753,0.029932396486401558,-0.010995574295520782
1790341557859532300,16.8975322265625,0.025045474991202354,-0.06169738993048668,0.015271631069481373
1790341557876015900,16.914015869140623,-0.004886921960860491,-0.018936822190880775,-0.01771509274840355
1790341557892482300,16.930482421875,0.009773843921720982,0.03848451003432274,0.01160643994808197
1790341557909004000,16.947004150390626,0.00855211354792118,0.003054326167330146,0.00733038317412138
1790341557925479400,16.9634794921875,-0.019547687843441963,0.05253441259264946,-0.01771509274840355
1790341557941961000,16.9799609375,0,-0.0403171069920063,0.01466076634824276
1790341557958443300,16.996443359375,-0.009162978269159794,-0.09529497474431992,0.031154127791523933
1790341557974895900,17.012895751953124,-0.003054326167330146,-0.08307767659425735,-0.02382374368607998
1790341557991387400,17.029387451171875,0.015882495790719986,-0.018936822190880775,-0.007941247895359993
1790341558007873800,17.045873779296876,-0.005497787147760391,0.03420845419168472,-0.013439035043120384
1790341558024394800,17.062394775390626,0.00366519158706069,0.0012217304902151227,-0.01038470957428217
1790341558040881700,17.078881591796875,-0.001832595793530345,-0.03726277872920036,-0.007941247895359993
1790341558057348000,17.09534814453125,-0.015882495790719986,0.02626720629632473,0.0006108652451075613
1790341558073839600,17.111839599609375,0.010995574295520782,-0.07452555745840073,-0.004886921960860491
1790341558090257400,17.12825732421875,0.001832595793530345,0.04337143152952194,-0.0024434609804302454
1790341558106840800,17.1448408203125,-0.00366519158706069,-0.005497787147760391,-0.016493361443281174
1790341558123326700,17.16132666015625,0.001832595793530345,0.012217304669320583,-0.0012217304902151227
1790341558139827500,17.177827392578124,0.0006108652451075613,0.01771509274840355,0.024434609338641167
1790341558156354300,17.194354248046874,-0.02076941914856434,-0.033597588539123535,0.01038470957428217
1790341558172835800,17.2108359375,0.012217304669320583,-0.12889257073402405,-0.005497787147760391
1790341558189312000,17.22731201171875,-0.003054326167330146,-0.00427605677396059,-0.010995574295520782
1790341558205797600,17.243797607421875,0.00366519158706069,0.02687807008624077,0.006719517521560192
1790341558222262800,17.2602626953125,-0.0024434609804302454,-0.021380282938480377,0.00427605677396059
1790341558238719500,17.276719482421875,0.0012217304902151227,-0.012828170321881771,-0.009162978269159794
1790341558255202800,17.293202880859376,-0.0012217304902151227,-0.019547687843441963,0.03481931984424591
1790341558271723500,17.3097236328125,-0.0006108652451075613,-0.00427605677396059,0.014049900695681572
1790341558288212700,17.326212646484375,0.0024434609804302454,0.0555887371301651,-0.003054326167330146
1790341558304712700,17.342712646484376,-0.009162978269159794,0.0024434609804302454,-0.016493361443281174
1790341558321167600,17.359167724609375,-0.0012217304902151227,-0.018325956538319588,0.003054326167330146
1790341558337683200,17.37568310546875,-0.0006108652451075613,-0.059864792972803116,-0.0006108652451075613
1790341558354193400,17.392193359375,0.01038470957428217,-0.02382374368607998,0.013439035043120384
1790341558370684200,17.40868408203125,0.0012217304902151227,0.01466076634824276,0.01466076634824276
1790341558387186000,17.42518603515625,-0.00366519158706069,0.02076941914856434,-0.013439035043120384
1790341558403674600,17.441674560546875,0.009162978269159794,0.0024434609804302454,0.015882495790719986
1790341558420153000,17.458153076171875,-0.009773843921720982,0.045204028487205505,-0.019547687843441963
1790341558436672500,17.474672607421876,0.004886921960860491,0.07880161702632904,0.02687807008624077
1790341558453160700,17.49116064453125,-0.00855211354792118,-0.02932153269648552,0.02687807008624077
1790341558469661200,17.5076611328125,-0.00366519158706069,0.04948008432984352,0.018325956538319588
1790341558486121700,17.524121826171875,0.004886921960860491,-0.016493361443281174,0.012828170321881771
1790341558502605300,17.540605224609376,-0.01160643994808197,0.00366519158706069,-0.00855211354792118
1790341558519108000,17.557108154296873,0.004886921960860491,-0.07696902006864548,0.02871066704392433
1790341558535594500,17.573594482421875,-0.018936822190880775,0.01710422709584236,-0.001832595793530345
1790341558552063500,17.5900634765625,0.027488935738801956,-0.003054326167330146,0.015271631069481373
1790341558568524800,17.60652490234375,-0.018936822190880775,0.059864792972803116,0.024434609338641167
1790341558585004800,17.6230048828125,-0.014049900695681572,0.06108652427792549,0.01466076634824276
1790341558601547300,17.63954736328125,0.013439035043120384,-0.021380282938480377,0.00855211354792118
1790341558618033700,17.65603369140625,0.004886921960860491,0.025045474991202354,-0.016493361443281174
1790341558634535000,17.672534912109374,-0.005497787147760391,0.012217304669320583,0.00855211354792118
1790341558651061500,17.6890615234375,-0.0006108652451075613,-0.014049900695681572,0.003054326167330146
1790341558667529500,17.705529541015625,0.021380282938480377,0.04214970022439957,0.036651913076639175
1790341558683993900,17.721993896484374,-0.015271631069481373,0.054367005825042725,0.018325956538319588
1790341558700483800,17.73848388671875,0.001832595793530345,-0.02321287989616394,0.0024434609804302454
1790341558716952600,17.75495263671875,-0.009162978269159794,-0.006719517521560192,-0.02626720629632473
1790341558733415400,17.77141552734375,0.018325956538319588,0.018936822190880775,0.0006108652451075613
1790341558749902000,17.787902099609376,0.019547687843441963,0.05619960278272629,0.02626720629632473
1790341558766357800,17.804357666015626,-0.025045474991202354,0.10201449692249298,-0.00855211354792118
1790341558782822000,17.82082177734375,0.015882495790719986,-0.06475171446800232,0.005497787147760391
1790341558799320600,17.837320556640623,0.009162978269159794,-0.018936822190880775,-0.013439035043120384
1790341558815813600,17.853813720703126,-0.00366519158706069,0.04703662544488907,-0.00366519158706069
1790341558832295400,17.87029541015625,-0.005497787147760391,-0.015271631069481373,-0.005497787147760391
1790341558848828000,17.886827880859375,0.010995574295520782,-0.00733038317412138,-0.004886921960860491
1790341558865316400,17.90331640625,-0.0024434609804302454,-0.006108652334660292,-0.015882495790719986
1790341558881823200,17.9198232421875,-0.00427605677396059,-0.036651913076639175,-0.045204028487205505
1790341558898319600,17.936319580078123,0.02015855349600315,-0.03237585723400116,0.00733038317412138
1790341558914804200,17.95280419921875,0.0024434609804302454,0.08429940044879913,-0.018325956538319588
1790341558931295000,17.969294921875,0.018325956538319588,0.07635815441608429,-0.02076941914856434
1790341558947773700,17.985773681640627,-0.001832595793530345,0.04398229718208313,-0.0403171069920063
1790341558964274700,18.002274658203124,0.010995574295520782,0.029932396486401558,0.0024434609804302454
1790341558980734500,18.018734375,0,-0.03726277872920036,-0.018936822190880775
1790341558997221600,18.0352216796875,0.0024434609804302454,-0.06169738993048668,-0.024434609338641167
1790341559013683700,18.05168359375,0.013439035043120384,0.028099801391363144,-0.014049900695681572
1790341559030173400,18.06817333984375,0.004886921960860491,-0.00366519158706069,-0.010995574295520782
1790341559046677200,18.08467724609375,0.0024434609804302454,-0.01771509274840355,0.0012217304902151227
1790341559063110000,18.10110986328125,0.0024434609804302454,-0.001832595793530345,0.001832595793530345
1790341559079592200,18.11759228515625,0.022602014243602753,-0.06108652427792549,-0.009162978269159794
1790341559096081700,18.13408154296875,0.01038470957428217,-0.0012217304902151227,-0.031154127791523933
1790341559112577000,18.150576904296877,0.00366519158706069,0.06536258012056351,0
1790341559129085000,18.1670849609375,0.024434609338641167,0.001832595793530345,0.014049900695681572
1790341559145561300,18.183561279296875,0.006108652334660292,0.031154127791523933,-0.00366519158706069
1790341559162045000,18.200044921875,0.00427605677396059,0.025656340643763542,-0.019547687843441963
1790341559178567400,18.2165673828125,0.02015855349600315,0.018936822190880775,-0.01466076634824276
1790341559195056400,18.233056396484375,0.010995574295520782,0.05619960278272629,-0.0012217304902151227
1790341559211560200,18.249560302734373,0.021991148591041565,0.05497787147760391,0.030543262138962746
1790341559228057000,18.26605712890625,-0.003054326167330146,0.08857546001672745,0.025656340643763542
1790341559244547300,18.28254736328125,0.00427605677396059,0.06352998316287994,-0.015271631069481373
1790341559261073700,18.29907373046875,0.012828170321881771,0.021380282938480377,-0.01710422709584236
1790341559277565200,18.315565185546873,0.001832595793530345,0.060475658625364304,0.02015855349600315
1790341559294073900,18.332073974609376,0.013439035043120384,0.003054326167330146,0.007941247895359993
1790341559310574000,18.348573974609376,0.02015855349600315,0.03726277872920036,-0.00855211354792118
1790341559327037400,18.365037353515625,-0.021380282938480377,0.028099801391363144,-0.22113321721553802
1790341559343557400,18.381557373046874,0.02382374368607998,-0.05375614017248154,-0.3396410644054413
1790341559360001300,18.398001220703126,-0.00427605677396059,0.05253441259264946,-0.2217440903186798
1790341559376479200,18.414479248046874,0.01771509274840355,-0.28466320037841797,-1.301142930984497
1790341559392953900,18.430953857421876,0.09651670604944229,-0.2675589919090271,-1.7739527225494385
1790341559409398500,18.4473984375,-0.01710422709584236,-0.015882495790719986,-1.0653489828109741
1790341559425844700,18.4638447265625,0.06291911751031876,0.0012217304902151227,-0.15393804013729095
1790341559442288000,18.4802880859375,-0.03848451003432274,0.0012217304902151227,0.4196644127368927
1790341559458732800,18.49673291015625,0.02626720629632473,0.0959058403968811,0.6389650702476501
1790341559475177700,18.513177734375,-0.030543262138962746,0.07208210229873657,0.6487388610839844
1790341559491625700,18.529625732421874,0.007941247895359993,0.08429940044879913,0.6829473376274109
1790341559508102400,18.546102294921877,0.004886921960860491,0.09468411654233932,0.6157521605491638
1790341559524547000,18.562547119140625,0.00855211354792118,0.07452555745840073,0.31520646810531616
1790341559541043000,18.57904296875,0.006108652334660292,0.07024950534105301,0.09162978827953339
1790341559557508600,18.595508544921874,0.004886921960860491,-0.006719517521560192,0.001832595793530345
1790341559573992700,18.61199267578125,0.021991148591041565,0.02871066704392433,-0.1014036312699318
1790341559590464800,18.62846484375,-0.021380282938480377,-0.08979719132184982,-0.14355333149433136
1790341559606912800,18.644912841796874,-0.02871066704392433,0.005497787147760391,-0.18325957655906677
1790341559623398100,18.661398193359375,0.0006108652451075613,-0.004886921960860491,-0.16554448008537292
1790341559639871700,18.677871826171874,-0.03420845419168472,0.030543262138962746,-0.10934487730264664
1790341559656331800,18.694331787109373,-0.006108652334660292,-0.06841690838336945,-0.07147123664617538
1790341559672823600,18.710823486328124,0.0012217304902151227,-0.030543262138962746,0.12950342893600464
1790341559689209300,18.727209228515626,0.02626720629632473,0.02626720629632473,0.252287358045578
1790341559705684500,18.7436845703125,0.007941247895359993,0.05925392732024193,0.2626720666885376
1790341559722129400,18.76012939453125,-0.004886921960860491,0.018325956538319588,0.23640485107898712
1790341559738579200,18.7765791015625,0.006108652334660292,0.0708603709936142,0.2431243658065796
1790341559755052500,18.793052490234373,-0.01038470957428217,0.016493361443281174,0.1270599663257599
1790341559771521500,18.809521484375,0.005497787147760391,-0.04153883829712868,-0.009773843921720982
1790341559787992000,18.825991943359377,0.009162978269159794,-0.02015855349600315,0.007941247895359993
1790341559804489000,18.842489013671877,0.00855211354792118,0.006108652334660292,0.04214970022439957
1790341559820971000,18.858970947265625,0.028099801391363144,0.009162978269159794,0.02932153269648552
1790341559837485000,18.875485107421873,0.00733038317412138,0.059864792972803116,0.025045474991202354
1790341559853973200,18.89197314453125,0.018936822190880775,0.08735372871160507,0.03787364438176155
1790341559870475000,18.90847509765625,0.00366519158706069,-0.01466076634824276,0.025045474991202354
1790341559886970000,18.92497021484375,0.014049900695681572,0.031154127791523933,-0.01710422709584236
1790341559903460000,18.941460205078126,0.02687807008624077,0.03787364438176155,0.02687807008624077
1790341559919989000,18.957989013671874,-0.00427605677396059,0.027488935738801956,-0.028099801391363144
1790341559936487400,18.9744873046875,0.02382374368607998,-0.006719517521560192,0.007941247895359993
1790341559952959000,18.990958984375,0.0012217304902151227,0.031154127791523933,-0.013439035043120384
1790341559969456600,19.00745654296875,0.048258353024721146,0.05864306539297104,0.09957103431224823
1790341559985909500,19.023909423828126,-0.0006108652451075613,0.02687807008624077,0.2687807083129883
1790341560002360300,19.0403603515625,0.02076941914856434,0.03848451003432274,0.22907446324825287
1790341560018774500,19.0567744140625,-0.005497787147760391,-0.05314527451992035,0.07330382615327835
1790341560035280100,19.073280029296875,0.036651913076639175,-0.08246681094169617,-0.09651670604944229
1790341560051666700,19.089666748046874,0,0.07330382615327835,-0.15332718193531036
1790341560068081700,19.10608154296875,0.025656340643763542,0.0757472887635231,-0.09285151958465576
1790341560084591400,19.12259130859375,0.0354301854968071,0.09896016865968704,0.029932396486401558
1790341560101039900,19.139039794921874,0.00733038317412138,0.12400564551353455,0.10262536257505417
1790341560117517600,19.155517578125,0.02932153269648552,0.04459316283464432,0.07147123664617538
1790341560134045200,19.172045166015625,0.013439035043120384,0.056810468435287476,-0.015882495790719986
1790341560150531300,19.18853125,0.01710422709584236,-0.015271631069481373,-0.08735372871160507
1790341560167056000,19.205055908203125,0.04092797264456749,0.08307767659425735,-0.02687807008624077
1790341560183545300,19.22154541015625,0.0006108652451075613,-0.07635815441608429,-0.009162978269159794
1790341560200051500,19.238051513671873,0.04398229718208313,-0.006108652334660292,0.051312681287527084
1790341560216549400,19.25454931640625,0.012217304669320583,0.09712757170200348,0.00733038317412138
1790341560233041000,19.271041015625,0.02871066704392433,0.039706241339445114,-0.04153883829712868
1790341560249565400,19.2875654296875,0.01160643994808197,0.01038470957428217,-0.022602014243602753
1790341560266056000,19.304055908203125,-0.0006108652451075613,0.01038470957428217,-0.030543262138962746
1790341560282559200,19.320559326171875,0.039706241339445114,0.021380282938480377,0.01710422709584236
1790341560299055400,19.337055419921874,0.012217304669320583,-0.02076941914856434,0.01160643994808197
1790341560315538400,19.353538330078123,0.022602014243602753,-0.01160643994808197,0.009162978269159794
1790341560332087600,19.370087646484375,0.01038470957428217,0.001832595793530345,0
1790341560348574700,19.38657470703125,0.02626720629632473,-0.003054326167330146,-0.009162978269159794
1790341560365011200,19.40301123046875,0.018936822190880775,-0.01710422709584236,0.0006108652451075613
1790341560381536500,19.41953662109375,0.02076941914856434,-0.014049900695681572,-0.01466076634824276
1790341560398019600,19.43601953125,0.0403171069920063,-0.014049900695681572,-0.012217304669320583
1790341560414540800,19.452540771484376,0.031154127791523933,0.006719517521560192,-0.005497787147760391
1790341560431028700,19.46902880859375,0.031154127791523933,0.05314527451992035,-0.00855211354792118
1790341560447529700,19.48552978515625,0.036651913076639175,0.039095375686883926,-0.0024434609804302454
1790341560464025900,19.50202587890625,0.04337143152952194,0.03726277872920036,-0.018936822190880775
1790341560480514000,19.51851416015625,0.03237585723400116,0.059864792972803116,0.004886921960860491
1790341560497037300,19.535037353515627,0.048258353024721146,0.031154127791523933,-0.031154127791523933
1790341560513527800,19.55152783203125,0.06291911751031876,-0.02871066704392433,0.00366519158706069
1790341560529998300,19.567998291015623,0.039095375686883926,-0.00366519158706069,0.0024434609804302454
1790341560546497500,19.58449755859375,0.04337143152952194,0.0507018156349659,0.00733038317412138
1790341560562955300,19.600955322265627,0.04642575979232788,0.051312681287527084,0.014049900695681572
1790341560579506200,19.617506103515623,0.04764748737215996,0.030543262138962746,0.00855211354792118
1790341560595995400,19.633995361328125,0.056810468435287476,0.012217304669320583,0.006719517521560192
1790341560612496100,19.65049609375,0.06658431142568588,-0.01038470957428217,-0.006719517521560192
1790341560629039600,19.66703955078125,0.029932396486401558,0.04153883829712868,0.01038470957428217
1790341560645520600,19.683520751953125,0.05497787147760391,0.013439035043120384,0.02626720629632473
1790341560662042000,19.7000419921875,0.048258353024721146,-0.00427605677396059,0.006108652334660292
1790341560678532000,19.716531982421873,0.02626720629632473,0.03176499158143997,-0.00366519158706069
1790341560694979800,19.732979736328126,0.056810468435287476,0.00733038317412138,0.01038470957428217
1790341560711447800,19.74944775390625,0.04214970022439957,-0.009162978269159794,0.004886921960860491
1790341560727942400,19.7659423828125,0.054367005825042725,-0.03420845419168472,0.006719517521560192
1790341560744469200,19.78246923828125,0.03481931984424591,-0.027488935738801956,0.0024434609804302454
1790341560760958500,19.79895849609375,0.05864306539297104,-0.0403171069920063,0.006108652334660292
1790341560777460700,19.815460693359373,0.05009094998240471,-0.03176499158143997,0.02687807008624077
1790341560793957600,19.83195751953125,0.04764748737215996,-0.01160643994808197,0.004886921960860491
1790341560810441200,19.848441162109374,0.0757472887635231,-0.05864306539297104,0.016493361443281174
1790341560826988300,19.86498828125,0.03848451003432274,-0.03787364438176155,0.001832595793530345
1790341560843475000,19.881474853515623,0.04153883829712868,-0.018936822190880775,-0.00366519158706069
1790341560859978000,19.89797802734375,0.054367005825042725,0.0024434609804302454,0.02626720629632473
1790341560876470800,19.914470703125,0.04886921867728233,-0.00733038317412138,0.03176499158143997
1790341560892927000,19.930927001953126,0.05375614017248154,-0.007941247895359993,0.0024434609804302454
1790341560909412000,19.947412109375,0.0403171069920063,0.03726277872920036,0.001832595793530345
1790341560925902300,19.96390234375,0.07757988572120667,-0.0024434609804302454,-0.0024434609804302454
1790341560942405000,19.980405029296875,0.06108652427792549,-0.012217304669320583,0.018325956538319588
1790341560958902000,19.996902099609375,0.04703662544488907,0.02015855349600315,0.003054326167330146
1790341560975392000,20.01339208984375,0.07024950534105301,0.01771509274840355,0.015882495790719986
1790341560991916000,20.029916015625,0.04703662544488907,0.0555887371301651,-0.009162978269159794
1790341561008405200,20.0464052734375,0.06169738993048668,0.012217304669320583,-0.015882495790719986
1790341561024876000,20.0628759765625,0.06475171446800232,-0.030543262138962746,0.019547687843441963
1790341561041277400,20.07927734375,0.06169738993048668,-0.024434609338641167,-0.012217304669320583
1790341561057746400,20.095746337890624,0.05619960278272629,0.016493361443281174,0.010995574295520782
