time,seconds_elapsed,z,y,x
1790341541101071000,0.139071044921875,7.089231014251709,8.147468566894531,-2.343923568725586
1790341541117539800,0.155539794921875,6.976703643798828,8.090007781982422,-2.2218191623687744
1790341541134009300,0.17200927734375,6.993463039398193,7.99184513092041,-2.0853497982025146
1790341541150503000,0.1885029296875,6.952761650085449,7.797914981842041,-1.9967641830444336
1790341541166972200,0.20497216796875,6.624756336212158,7.666234016418457,-1.889025092124939
1790341541183443200,0.221443115234375,6.418854713439941,7.625532627105713,-1.8794482946395874
1790341541199942100,0.237942138671875,6.086060523986816,7.587224960327148,-2.1547815799713135
1790341541216413700,0.25441357421875,5.762843608856201,7.527369976043701,-2.583343744277954
1790341541232913400,0.270913330078125,5.568912982940674,7.568071365356445,-2.8610711097717285
1790341541249385000,0.287385009765625,5.360617637634277,7.704541206359863,-2.8826189041137695
1790341541265780500,0.303780517578125,5.16429328918457,7.7763671875,-2.7509377002716064
1790341541282278700,0.320278564453125,5.171475887298584,7.802703380584717,-2.5330653190612793
1790341541298744300,0.336744384765625,5.506663799285889,7.790732383728027,-2.3702597618103027
1790341541315183400,0.353183349609375,6.0836663246154785,7.565677165985107,-2.3750481605529785
1790341541331646700,0.369646728515625,6.512228488922119,7.309497833251953,-2.4636335372924805
1790341541348109800,0.38610986328125,6.528987884521484,7.134721279144287,-2.6647465229034424
1790341541364627700,0.402627685546875,6.347028732299805,7.177816867828369,-2.8155810832977295
1790341541381088800,0.4190888671875,6.2847795486450195,7.314286231994629,-2.7485435009002686
1790341541397578800,0.435578857421875,6.232107162475586,7.4100542068481445,-2.6360161304473877
1790341541414012200,0.45201220703125,5.889736175537109,7.8098859786987305,-2.4612393379211426
1790341541430441500,0.46844140625,5.7556610107421875,8.154650688171387,-2.31758713722229
1790341541446928000,0.484927978515625,5.765237808227539,8.123526573181152,-2.22660756111145
1790341541463389400,0.501389404296875,5.849034786224365,7.929595947265625,-2.0374655723571777
1790341541479876600,0.517876708984375,6.076483726501465,7.6997528076171875,-1.7381904125213623
1790341541496337400,0.53433740234375,5.901707172393799,7.433996200561523,-1.6903064250946045
1790341541512816000,0.550816162109375,5.65031623840332,7.196970462799072,-1.8291701078414917
1790341541529302500,0.567302490234375,5.492298603057861,7.067683219909668,-2.0231003761291504
1790341541545764000,0.58376416015625,5.523423194885254,7.053318023681641,-2.161964178085327
1790341541562283000,0.600282958984375,5.6670756340026855,7.003039836883545,-1.987187385559082
1790341541578743600,0.61674365234375,5.633556365966797,7.058106422424316,-1.8411411046981812
1790341541595207200,0.633207275390625,5.7987565994262695,7.108384609222412,-1.699883222579956
1790341541611725800,0.649725830078125,6.0190229415893555,7.117961883544922,-1.4844050407409668
1790341541628186400,0.666186279296875,6.512228488922119,6.938396453857422,-1.1228805780410767
1790341541644675800,0.68267578125,6.658275127410889,6.842628479003906,-0.7445967197418213
1790341541661134000,0.699134033203125,6.557718276977539,7.053318023681641,-0.6224924325942993
1790341541677592600,0.715592529296875,6.172252178192139,7.465120792388916,-0.7374141216278076
1790341541694087000,0.7320869140625,6.078877925872803,7.750030994415283,-1.1971008777618408
1790341541710547700,0.748547607421875,6.2632317543029785,7.967903137207031,-1.4963760375976562
1790341541727008000,0.765008056640625,6.806715488433838,8.106766700744629,-1.3742717504501343
1790341541743466800,0.781466796875,7.127538681030273,8.190564155578613,-1.0079588890075684
1790341541759990300,0.797990234375,7.0988078117370605,8.111555099487305,-0.8331822156906128
1790341541776482600,0.814482666015625,6.303933143615723,8.154650688171387,-0.5961562395095825
1790341541792943000,0.830943115234375,5.6670756340026855,8.209717750549316,-0.4692635238170624
1790341541809379800,0.8473798828125,5.449203014373779,8.054094314575195,-0.49799394607543945
1790341541825839600,0.863839599609375,5.51624059677124,7.706935405731201,-0.6655880808830261
1790341541842298600,0.880298583984375,5.442020416259766,7.445967197418213,-0.8068459630012512
1790341541858811000,0.896810791015625,5.193023681640625,7.479485988616943,-1.1061211824417114
1790341541875266800,0.913266845703125,4.99669885635376,7.522581577301025,-1.3623007535934448
1790341541891755300,0.92975537109375,4.934449672698975,7.570465564727783,-1.3982137441635132
1790341541908217300,0.94621728515625,5.307945251464844,7.869740962982178,-1.400607943534851
1790341541924682500,0.9626826171875,5.736507415771484,8.111555099487305,-1.3048399686813354
1790341541941173500,0.979173583984375,6.208165168762207,7.891288757324219,-0.950498104095459
1790341541957635300,0.99563525390625,6.011840343475342,7.524975776672363,-0.4141969084739685
1790341541974098700,1.0120986328125,5.212177276611328,7.47230339050293,-0.28969839215278625
1790341541990559000,1.02855908203125,4.54419469833374,7.73087739944458,-0.6368576288223267
1790341542007041300,1.045041259765625,4.417302131652832,8.037335395812988,-1.137245774269104
1790341542023531300,1.06153125,4.824316501617432,8.209717750549316,-1.558625340461731
1790341542039994000,1.077994140625,5.343858242034912,8.281543731689453,-1.7693150043487549
1790341542056480300,1.094480224609375,5.770026206970215,8.29590892791748,-1.6711528301239014
1790341542072924000,1.110923828125,5.858611583709717,8.312667846679688,-1.6376339197158813
1790341542089391000,1.12739111328125,5.652710437774658,8.406042098999023,-1.6687586307525635
1790341542105922600,1.143922607421875,5.348646640777588,8.597578048706055,-1.403002142906189
1790341542122426400,1.16042626953125,5.092466831207275,8.755595207214355,-1.091755986213684
1790341542138876200,1.176876220703125,5.188235282897949,8.904036521911621,-1.2282254695892334
1790341542155383000,1.193383056640625,5.336675643920898,8.87051773071289,-1.556231141090393
1790341542171842000,1.209842041015625,5.327098846435547,8.451532363891602,-1.7573440074920654
1790341542188301800,1.2263017578125,5.018246650695801,8.17141056060791,-1.8052281141281128
1790341542204759600,1.242759521484375,4.680664539337158,8.209717750549316,-1.7549498081207275
1790341542221217500,1.259217529296875,4.173093795776367,8.406042098999023,-1.5897499322891235
1790341542237734700,1.275734619140625,4.098873138427734,8.53532886505127,-1.4891934394836426
1790341542254234600,1.292234619140625,4.438849925994873,8.396465301513672,-1.5610195398330688
1790341542270690300,1.308690185546875,5.044582843780518,8.135497093200684,-1.6687586307525635
1790341542287147500,1.3251474609375,5.729324817657471,8.010998725891113,-1.7310078144073486
1790341542303626200,1.341626220703125,6.658275127410889,8.010998725891113,-1.7046716213226318
1790341542320079600,1.35807958984375,6.967126846313477,8.185775756835938,-1.6400281190872192
1790341542336534300,1.3745341796875,6.660669326782227,8.322244644165039,-1.400607943534851
1790341542353017300,1.391017333984375,6.009446144104004,8.38449478149414,-1.1252747774124146
1790341542369502200,1.407502197265625,5.513846397399902,8.44434928894043,-1.1779472827911377
1790341542385981200,1.423981201171875,5.4228668212890625,8.401253700256348,-1.3120225667953491
1790341542402489600,1.440489501953125,5.549759387969971,8.192957878112793,-1.414973258972168
1790341542418945000,1.456945068359375,5.700594425201416,8.042123794555664,-1.359906554222107
1790341542435478800,1.473478759765625,5.640739440917969,8.070854187011719,-1.1659762859344482
1790341542451933000,1.489932861328125,5.47075080871582,8.152256965637207,-1.039083480834961
1790341542468432400,1.506432373046875,5.403713226318359,8.111555099487305,-0.8906430602073669
1790341542484939500,1.522939453125,5.434837818145752,8.037335395812988,-0.768538773059845
1790341542501396500,1.539396484375,5.5329999923706055,8.04691219329834,-0.730231523513794
1790341542517882400,1.55588232421875,5.39174222946167,8.085219383239746,-0.6919242739677429
1790341542534384600,1.572384521484375,5.382165431976318,8.1139497756958,-0.7422025203704834
1790341542550888000,1.588887939453125,5.643133640289307,8.075642585754395,-0.9097966551780701
1790341542567344000,1.60534423828125,6.098031520843506,8.044517517089844,-1.05105459690094
1790341542583831800,1.621831787109375,6.248866558074951,8.097189903259277,-1.213860273361206
1790341542600361700,1.63836181640625,6.205770969390869,8.128314971923828,-1.2401964664459229
1790341542616867800,1.654867919921875,5.8442463874816895,8.224082946777344,-1.3000515699386597
1790341542633354500,1.6713544921875,5.5545477867126465,8.367734909057617,-1.3096283674240112
1790341542649808100,1.68780810546875,5.485116004943848,8.343792915344238,-1.2042834758758545
1790341542666305500,1.704305419921875,5.413290023803711,8.274360656738281,-1.237802267074585
1790341542682761200,1.72076123046875,5.365406036376953,8.219294548034668,-1.3479355573654175
1790341542699212300,1.73721240234375,5.434837818145752,8.066065788269043,-1.3694833517074585
1790341542715667200,1.753667236328125,5.353435039520264,7.94635534286499,-1.479616641998291
1790341542732123100,1.770123046875,5.152322292327881,7.857769966125488,-1.5131354331970215
1790341542748580400,1.786580322265625,4.903325080871582,7.824251174926758,-1.5610195398330688
1790341542764977400,1.802977294921875,4.903325080871582,7.934384346008301,-1.7118542194366455
1790341542781461200,1.819461181640625,5.0254292488098145,8.070854187011719,-1.7932571172714233
1790341542798008000,1.836008056640625,5.281609058380127,8.109161376953125,-1.6950948238372803
1790341542814494000,1.852493896484375,5.489904403686523,8.200140953063965,-1.4867992401123047
1790341542830952700,1.86895263671875,5.497087001800537,8.180987358093262,-1.3120225667953491
1790341542847467300,1.88546728515625,5.343858242034912,8.109161376953125,-1.1899182796478271
1790341542863924000,1.901924072265625,5.207388877868652,8.01339340209961,-1.1994950771331787
1790341542880414000,1.9184140625,4.98472785949707,7.989450931549072,-1.2210428714752197
1790341542896872400,1.93487255859375,4.896142482757568,7.979874134063721,-1.1180921792984009
1790341542913331700,1.951331787109375,4.960785865783691,7.999027729034424,-1.01753568649292
1790341542929819600,1.967819580078125,4.977545261383057,7.915230751037598,-0.8858546018600464
1790341542946276600,1.984276611328125,5.415684223175049,7.637503623962402,-0.6775590777397156
1790341542962766300,2.000766357421875,5.657498836517334,7.354987621307373,-0.5482721924781799
1790341542979220200,2.01722021484375,5.530605792999268,6.998251438140869,-0.9433154463768005
1790341542995699700,2.03369970703125,5.48272180557251,6.715735912322998,-1.2282254695892334
1790341543012155600,2.05015576171875,5.571307182312012,6.538564682006836,-1.5298948287963867
1790341543028612600,2.066612548828125,5.7125654220581055,6.691793918609619,-1.8100165128707886
1790341543044967000,2.082966796875,6.13633918762207,6.993463039398193,-1.7070658206939697
1790341543061380900,2.099380859375,6.912060260772705,7.175422668457031,-1.1540051698684692
1790341543077839000,2.115839111328125,7.340622425079346,7.433996200561523,-0.5339069962501526
1790341543094326800,2.132326904296875,6.7708024978637695,7.599195957183838,-0.028730420395731926
1790341543110760200,2.14876025390625,5.791574001312256,7.601590633392334,0.2298433631658554
1790341543127049700,2.1650498046875,5.116408824920654,7.690176010131836,0.3256114423274994
1790341543143505700,2.181505615234375,5.018246650695801,8.015787124633789,0.4429273009300232
1790341543159962600,2.197962646484375,4.668693542480469,8.358158111572266,0.33518823981285095
1790341543176446500,2.214446533203125,4.4292731285095215,8.585607528686523,0.12210428714752197
1790341543192901600,2.230901611328125,4.884171485900879,8.580819129943848,0.023942016065120697
1790341543209360400,2.2473603515625,6.205770969390869,8.226476669311523,-0.07661445438861847
1790341543225815600,2.263815673828125,7.357381820678711,7.592013359069824,-0.07661445438861847
1790341543242297600,2.280297607421875,7.881711959838867,6.648698329925537,-0.12689268589019775
1790341543258754600,2.296754638671875,7.489062786102295,5.803544998168945,-0.43335050344467163
1790341543275208200,2.313208251953125,6.811503887176514,5.43723201751709,-0.9265560507774353
1790341543291606300,2.329606201171875,6.471527099609375,5.4659624099731445,-1.5179238319396973
1790341543308059400,2.346059326171875,7.445967197418213,5.676652431488037,-1.6519991159439087
1790341543324514800,2.362514892578125,8.583212852478027,5.793968200683594,-1.0295066833496094
1790341543340997400,2.378997314453125,7.884106159210205,5.518634796142578,-0.42377370595932007
1790341543357451500,2.395451416015625,5.980715751647949,5.2265424728393555,-0.26575639843940735
1790341543373909000,2.411908935546875,4.412513732910156,5.066130638122559,-0.28969839215278625
1790341543390366000,2.428365966796875,3.7205893993377686,5.56173038482666,-0.48602294921875
1790341543406823700,2.44482373046875,4.264073371887207,6.172252178192139,-0.4908113479614258
1790341543423312000,2.461311767578125,5.52821159362793,6.200982570648193,-0.35434186458587646
1790341543439766800,2.477766845703125,7.146692276000977,5.870582580566406,-0.47884035110473633
1790341543456190000,2.49418994140625,8.355764389038086,5.652710437774658,-0.6727706789970398
1790341543472610800,2.51061083984375,9.107542991638184,5.5545477867126465,-0.9217676520347595
1790341543489087500,2.52708740234375,9.557653427124023,5.497087001800537,-1.4173674583435059
1790341543505621500,2.54362158203125,10.194510459899902,5.319916248321533,-1.821987509727478
1790341543522072800,2.56007275390625,10.532093048095703,5.058948040008545,-2.255337953567505
1790341543538577000,2.576576904296875,10.309432983398438,4.853046894073486,-2.406172752380371
1790341543555031000,2.593031005859375,9.536105155944824,4.838681697845459,-2.363077163696289
1790341543571488500,2.609488525390625,8.796297073364258,4.9368438720703125,-2.030282974243164
1790341543587971000,2.62597119140625,8.851364135742188,4.922478675842285,-1.644816517829895
1790341543604429000,2.642428955078125,8.96149730682373,5.035006046295166,-1.821987509727478
1790341543620888800,2.658888916015625,10.457873344421387,7.101202011108398,1.5705963373184204
1790341543637346800,2.675346923828125,11.367670059204102,8.655038833618164,4.896142482757568
1790341543653806800,2.691806884765625,8.89445972442627,7.86734676361084,2.185906171798706
1790341543670265600,2.708265625,8.731653213500977,8.125920295715332,1.522712230682373
1790341543686723800,2.724723876953125,6.509834289550781,6.756437301635742,-1.7405846118927002
1790341543703212300,2.74121240234375,5.039794445037842,5.949591159820557,-4.20421838760376
1790341543719664600,2.75766455078125,4.6040496826171875,5.544970989227295,-5.197812080383301
1790341543736050200,2.77405029296875,4.824316501617432,4.881777286529541,-4.525041103363037
1790341543752501800,2.790501708984375,5.25527286529541,4.809951305389404,-2.942473888397217
1790341543768953300,2.806953369140625,5.279214859008789,4.9799394607543945,-1.9033904075622559
1790341543785365800,2.82336572265625,5.750872611999512,5.738901615142822,-0.8523358106613159
1790341543801818600,2.839818603515625,5.643133640289307,6.6391215324401855,0.19632454216480255
1790341543818272000,2.85627197265625,5.75326681137085,6.981492042541504,1.2114660739898682
1790341543834784300,2.8727841796875,4.73573112487793,6.627150535583496,2.070984363555908
1790341543851238400,2.88923828125,4.2329487800598145,6.078877925872803,2.832340717315674
1790341543867698700,2.90569873046875,5.681440830230713,5.6910176277160645,2.52109432220459
1790341543884155600,2.92215576171875,6.624756336212158,5.971138954162598,1.1300631761550903
1790341543900614000,2.93861376953125,7.141903877258301,6.042964935302734,0.48602294921875
1790341543917069300,2.9550693359375,7.331045627593994,6.210559368133545,0.8954314589500427
1790341543933525200,2.971525146484375,8.147468566894531,6.01423454284668,0.6536170840263367
1790341543949980000,2.98797998046875,8.394071578979492,5.475539207458496,0.42377370595932007
1790341543966430000,3.004429931640625,8.367734909057617,5.25527286529541,-0.19393034279346466
1790341543982908700,3.02090869140625,8.030152320861816,5.485116004943848,-0.7709329724311829
1790341543999362300,3.0373623046875,7.728483200073242,5.825092792510986,-1.0414776802062988
1790341544015812400,3.053812255859375,7.484274387359619,6.212953567504883,-0.5291185975074768
1790341544032318500,3.070318359375,7.398083209991455,6.502651691436768,0.05746084079146385
1790341544048770000,3.08677001953125,7.462726593017578,6.651092529296875,0.23702596127986908
1790341544065186600,3.1031865234375,7.747636795043945,6.775590896606445,-0.2753331959247589
1790341544081698800,3.11969873046875,7.953537940979004,6.861782073974609,-1.2306196689605713
1790341544098150700,3.136150634765625,7.881711959838867,6.823474884033203,-1.9919757843017578
1790341544114603000,3.15260302734375,7.987056732177734,6.643909931182861,-2.516305923461914
1790341544131053800,3.1690537109375,7.9846625328063965,6.722918510437012,-1.256955862045288
1790341544147435500,3.185435546875,8.403648376464844,6.828263282775879,0.3280056416988373
1790341544163920400,3.20192041015625,8.56645393371582,6.718130111694336,1.6735470294952393
1790341544180369400,3.218369384765625,8.580819129943848,5.75326681137085,1.8507179021835327
1790341544196852500,3.2348525390625,7.69735860824585,5.403713226318359,2.1547815799713135
1790341544213298700,3.251298583984375,6.3973069190979,5.451597213745117,2.4899697303771973
1790341544229773800,3.26777392578125,5.355829238891602,5.413290023803711,2.52109432220459
1790341544246256600,3.284256591796875,4.841075897216797,5.485116004943848,2.671929121017456
1790341544262709500,3.30070947265625,4.809951305389404,5.506663799285889,2.604891538619995
1790341544279087400,3.31708740234375,5.063736438751221,5.082890033721924,2.2242133617401123
1790341544295538000,3.333537841796875,5.4013190269470215,4.6255974769592285,1.9967641830444336
1790341544311988000,3.349988037109375,6.469132900238037,4.417302131652832,1.8962076902389526
1790341544328501800,3.366501708984375,6.6127848625183105,4.182670593261719,1.4652514457702637
1790341544344955100,3.382955078125,8.159439086914062,3.869029998779297,1.0797849893569946
1790341544361443800,3.39944384765625,8.164227485656738,3.4165258407592773,0.28730419278144836
1790341544377899500,3.4158994140625,8.595184326171875,2.8227639198303223,-0.5363011956214905
1790341544394358800,3.43235888671875,9.265560150146484,2.628833532333374,-0.5267243981361389
1790341544410845000,3.448844970703125,10.225635528564453,2.389413356781006,0
1790341544427296300,3.465296142578125,10.474632263183594,2.3726539611816406,0.8547300100326538
1790341544443750000,3.48175,10.362105369567871,2.6024973392486572,1.2210428714752197
1790341544460201500,3.498201416015625,10.668562889099121,2.5043349266052246,0.9457096457481384
1790341544476653000,3.514653076171875,10.699687004089355,2.229001760482788,0.6584054827690125
1790341544493106200,3.531106201171875,10.409989356994629,2.0159177780151367,0.667982280254364
1790341544509606400,3.5476064453125,10.441113471984863,1.6328455209732056,0.6584054827690125
1790341544526121500,3.56412158203125,10.87446403503418,1.3431471586227417,0.7086837291717529
1790341544542572800,3.58057275390625,11.370063781738281,1.3742717504501343,1.05105459690094
1790341544559024000,3.597024169921875,11.695674896240234,1.3048399686813354,1.1061211824417114
1790341544575537400,3.613537353515625,11.765107154846191,0.7709329724311829,0.7086837291717529
1790341544591989200,3.6299892578125,11.338939666748047,0.4908113479614258,0.524330198764801
1790341544608474000,3.64647412109375,11.171344757080078,0.35434186458587646,0.45010992884635925
1790341544624925700,3.66292578125,10.781089782714844,0.10055647045373917,0.3926490843296051
1790341544641378300,3.67937841796875,10.450690269470215,-0.2849099934101105,0.363918662071228
1790341544657827600,3.69582763671875,10.132261276245117,-0.4596867263317108,0.5602431893348694
1790341544674276600,3.712276611328125,9.964667320251465,-0.5410895943641663,0.7350199222564697
1790341544690760000,3.728760009765625,9.986215591430664,-0.6631938815116882,0.8451532125473022
1790341544707212500,3.745212646484375,9.995792388916016,-0.6033388376235962,0.993593692779541
1790341544723689000,3.76168896484375,9.787496566772461,-0.4812345504760742,1.436521053314209
1790341544740139500,3.778139404296875,9.66299819946289,-0.30885201692581177,1.7118542194366455
1790341544756590000,3.794590087890625,9.708487510681152,-0.1388636976480484,1.5705963373184204
1790341544772980700,3.810980712890625,9.44752025604248,-0.22026655077934265,0.9169792532920837
1790341544789429500,3.827429443359375,9.528923034667969,-0.5913678407669067,0.12689268589019775
1790341544805881900,3.8438818359375,9.780313491821289,-0.8643068075180054,-0.3519476354122162
1790341544822370300,3.860370361328125,10.02452278137207,-1.0199298858642578,-0.17956513166427612
1790341544838786800,3.876786865234375,2.5474305152893066,4.060565948486328,3.3039982318878174
1790341544855240200,3.893240234375,17.159242630004883,-3.8738183975219727,1.4508862495422363
1790341544871693800,3.90969384765625,10.134655952453613,0.23702596127986908,0.14365209639072418
1790341544888146700,3.926146728515625,9.172186851501465,-0.6607996821403503,-0.38546648621559143
1790341544904597000,3.942596923828125,8.959102630615234,0.5051765441894531,-0.6823474764823914
1790341544921046000,3.9590458984375,9.835380554199219,0.4812345504760742,-0.4668693244457245
1790341544937530600,3.975530517578125,9.368511199951172,-0.002394201699644327,-0.5985504388809204
1790341544953981400,3.9919814453125,9.476250648498535,0.9169792532920837,-0.3256114423274994
1790341544970455300,4.008455322265625,8.7484130859375,1.3551181554794312,0.5003881454467773
1790341544986938600,4.024938720703125,9.349357604980469,0.8643068075180054,-0.6440402865409851
1790341545003389000,4.041388916015625,9.351752281188965,1.137245774269104,-0.5841852426528931
1790341545019902700,4.05790283203125,9.366117477416992,1.5107412338256836,-0.7972691655158997
1790341545036349700,4.074349609375,10.280701637268066,1.139639973640442,-2.03507137298584
1790341545052798500,4.090798583984375,9.986215591430664,1.5729905366897583,-0.9145850539207458
1790341545069274600,4.107274658203125,10.733205795288086,1.170764684677124,-0.6248866319656372
1790341545085723100,4.12372314453125,10.266336441040039,1.161187767982483,-0.8571242094039917
1790341545102205200,4.140205078125,12.12902545928955,2.784456491470337,0.2849099934101105
1790341545118724900,4.156724853515625,13.235146522521973,1.5203180313110352,-0.5339069962501526
1790341545135097300,4.173097412109375,12.02846908569336,2.3032219409942627,-0.2537853717803955
1790341545151543800,4.189543701171875,10.690110206604004,1.8148049116134644,0.10534487664699554
1790341545168044000,4.2060439453125,10.316615104675293,1.9153614044189453,0.22266076505184174
1790341545184497000,4.222496826171875,8.51138687133789,4.089296340942383,1.1013327836990356
1790341545200948200,4.2389482421875,11.185709953308105,1.6160861253738403,-1.2880805730819702
1790341545217422300,4.25542236328125,12.643778800964355,3.751713991165161,0.21547815203666687
1790341545233905200,4.2719052734375,11.628637313842773,6.19379997253418,0.667982280254364
1790341545250353700,4.288353759765625,13.06515884399414,1.6639702320098877,0.8355764150619507
1790341545266765800,4.304765869140625,10.833763122558594,2.346317768096924,0.5386953949928284
1790341545283214600,4.321214599609375,10.1753568649292,2.190694570541382,-0.05267243832349777
1790341545299663000,4.3376630859375,9.619902610778809,1.1516109704971313,0.9026140570640564
1790341545316141300,4.354141357421875,9.255983352661133,2.2577321529388428,1.3120225667953491
1790341545332591600,4.370591552734375,8.650250434875488,1.7980455160140991,1.0223240852355957
1790341545349043700,4.387043701171875,7.826645374298096,0.7805097699165344,1.115697979927063
1790341545365496600,4.40349658203125,8.760383605957031,3.0406360626220703,1.4844050407409668
1790341545381948700,4.41994873046875,8.83939266204834,1.4844050407409668,1.2521674633026123
1790341545398434300,4.436434326171875,9.126696586608887,2.1499931812286377,1.800439715385437
1790341545414887000,4.452886962890625,8.899248123168945,1.37906014919281,1.5131354331970215
1790341545431367200,4.4693671875,10.805032730102539,1.7860745191574097,2.695871114730835
1790341545447820000,4.485820068359375,11.317391395568848,2.049436569213867,2.8443117141723633
1790341545464302000,4.502302001953125,11.894393920898438,2.3127987384796143,1.6352397203445435
1790341545480756000,4.518755859375,11.707646369934082,2.38462495803833,0.6751648783683777
1790341545497207300,4.535207275390625,10.29746150970459,1.8124107122421265,0.2513911724090576
1790341545513627100,4.551627197265625,9.244012832641602,2.2601263523101807,0.8523358106613159
1790341545530078200,4.568078125,8.638279914855957,2.537853717803955,0.8978256583213806
1790341545546531800,4.58453173828125,8.468291282653809,2.7078421115875244,0.8307880163192749
1790341545563013000,4.60101318359375,8.010998725891113,3.0382418632507324,0.7182605266571045
1790341545579462000,4.6174619140625,7.8098859786987305,3.2106244564056396,0.569819986820221
1790341545595944000,4.63394384765625,7.91283655166626,3.426102638244629,0.8930372595787048
1790341545612394500,4.65039453125,7.876923561096191,3.5673606395721436,0.6727706789970398
1790341545628859000,4.66685888671875,7.467514991760254,3.5889084339141846,0.11013327538967133
1790341545645308400,4.683308349609375,7.237671852111816,3.2321722507476807,-0.6967126727104187
1790341545661758000,4.699758056640625,6.514622688293457,2.985569477081299,-0.6009446382522583
1790341545678207000,4.71620703125,29.21644401550293,-6.303933143615723,11.683704376220703
1790341545694657300,4.7326572265625,2.6791117191314697,6.962338447570801,0.06464344263076782
1790341545711109400,4.749109375,15.5311861038208,0.9959878921508789,3.552995204925537
1790341545727561200,4.765561279296875,6.801927089691162,4.632780075073242,1.7549498081207275
1790341545744012000,4.782011962890625,11.111490249633789,2.3511061668395996,1.9919757843017578
1790341545760483800,4.79848388671875,8.329427719116211,4.197035789489746,1.357512354850769
1790341545776932400,4.814932373046875,8.571242332458496,4.098873138427734,1.3096283674240112
1790341545793379800,4.8313798828125,9.96945571899414,3.464409828186035,1.4437036514282227
1790341545809852200,4.84785205078125,8.59997272491455,3.450044631958008,0.8882488012313843
1790341545826327800,4.864327880859375,9.042900085449219,2.942473888397217,1.0582371950149536
1790341545842773200,4.880773193359375,7.393294811248779,3.5625722408294678,1.644816517829895
1790341545859263200,4.89726318359375,8.396465301513672,2.3487119674682617,1.1803414821624756
1790341545875708700,4.913708740234375,9.607931137084961,1.5969325304031372,0.8164227604866028
1790341545892156400,4.930156494140625,8.47547435760498,2.1116859912872314,0.6967126727104187
1790341545908601000,4.94660107421875,9.514557838439941,2.5761611461639404,0.7733271718025208
1790341545925048000,4.963048095703125,9.892841339111328,3.155557870864868,1.4484920501708984
1790341545941493200,4.9794931640625,8.853757858276367,3.485957622528076,1.479616641998291
1790341545957934600,4.9959345703125,10.824186325073242,3.40216064453125,1.434126853942871
1790341545974377000,5.012376953125,10.122684478759766,3.600879430770874,2.4851813316345215
1790341545990824200,5.02882421875,9.464279174804688,3.6391866207122803,2.7461493015289307
1790341546007269600,5.04526953125,8.374917984008789,3.689464807510376,3.1268274784088135
1790341546023718000,5.0617177734375,9.01895809173584,3.3949780464172363,2.7892448902130127
1790341546040164000,5.0781640625,12.356474876403809,2.1930887699127197,0.9840168952941895
1790341546056636200,5.09463623046875,7.333439826965332,1.9105730056762695,1.0127472877502441
1790341546073012500,5.111012451171875,5.504269599914551,1.2641384601593018,0.19632454216480255
1790341546089329200,5.1273291015625,10.881647109985352,0.4836287498474121,-1.2641384601593018
1790341546105775600,5.143775634765625,9.749189376831055,0.6512228846549988,-0.6799532771110535
1790341546122223900,5.160223876953125,10.244789123535156,-0.047884032130241394,-0.5506663918495178
1790341546138674000,5.176673828125,9.888052940368652,0.12928688526153564,-0.31124621629714966
1790341546155123700,5.193123779296875,9.402029991149902,-0.06464344263076782,-0.3016694188117981
1790341546171575000,5.209574951171875,11.599906921386719,-0.3926490843296051,0.3926490843296051
1790341546187995400,5.225995361328125,10.582371711730957,-0.3016694188117981,0.20350714027881622
1790341546204439800,5.242439697265625,11.293449401855469,0.26336219906806946,1.1324573755264282
1790341546220888000,5.25888818359375,10.766724586486816,0.6488286852836609,0.031124621629714966
1790341546237335000,5.2753349609375,10.615890502929688,1.1540051698684692,0.3471592366695404
1790341546253810000,5.291809814453125,10.402806282043457,0.689530074596405,0.545877993106842
1790341546270256400,5.30825634765625,10.280701637268066,1.139639973640442,-0.11971008777618408
1790341546286700500,5.324700439453125,9.660603523254395,1.5322890281677246,0.6847416758537292
1790341546303169800,5.341169677734375,10.108319282531738,1.3694833517074585,1.1420341730117798
1790341546319613700,5.35761376953125,9.775525093078613,1.4389152526855469,0.2992752194404602
1790341546336084500,5.37408447265625,9.217676162719727,1.6496049165725708,0.6607996821403503
1790341546352581400,5.390581298828125,8.473079681396484,1.7741034030914307,0.7326257228851318
1790341546369028000,5.407028076171875,9.883264541625977,1.3862427473068237,0.2801215946674347
1790341546385473300,5.423473388671875,8.904036521911621,1.6112977266311646,0.6727706789970398
1790341546401967000,5.439967041015625,9.299078941345215,1.5969325304031372,0.7661445140838623
1790341546418427400,5.456427490234375,9.32302188873291,2.499546527862549,1.0893617868423462
1790341546434874000,5.4728740234375,9.526528358459473,2.346317768096924,0.7230489253997803
1790341546451320300,5.4893203125,9.53849983215332,1.2258312702178955,0.038307227194309235
1790341546467809000,5.50580908203125,9.765948295593262,0.5027823448181152,-0.42856210470199585
1790341546484255700,5.522255859375,9.931148529052734,-0.15322890877723694,-0.1364694982767105
1790341546500626000,5.5386259765625,10.230423927307129,-0.47644615173339844,0.5027823448181152
1790341546517072400,5.555072265625,9.988609313964844,-0.363918662071228,0.6631938815116882
1790341546533560300,5.571560302734375,9.105149269104004,0.43095630407333374,1.0414776802062988
1790341546550036000,5.588035888671875,9.619902610778809,1.2042834758758545,0.5027823448181152
1790341546566483700,5.604483642578125,9.500192642211914,1.2641384601593018,-0.06464344263076782
1790341546582934000,5.62093408203125,10.321403503417969,0.6368576288223267,-0.18914192914962769
1790341546599382800,5.6373828125,10.216058731079102,0.8738836050033569,0.3064578175544739
1790341546615829200,5.653829345703125,10.125079154968262,1.1540051698684692,0.23702596127986908
1790341546632277000,5.670277099609375,9.921571731567383,1.4676456451416016,0.6272808313369751
1790341546648725000,5.68672509765625,9.402029991149902,1.580173134803772,1.2186486721038818
1790341546665172000,5.703171875,9.430760383605957,1.3431471586227417,0.9145850539207458
1790341546681615000,5.719614990234375,9.006986618041992,1.8363527059555054,0.9026140570640564
1790341546698085000,5.736085205078125,9.17697525024414,2.2601263523101807,1.0773907899856567
1790341546714529000,5.752529052734375,8.724471092224121,2.2146365642547607,1.259350061416626
1790341546730971000,5.768970947265625,8.56884765625,1.9393033981323242,1.1803414821624756
1790341546747383800,5.7853837890625,8.69095230102539,1.7477672100067139,0.9409212470054626
1790341546763827000,5.801826904296875,10.697293281555176,0.8858546018600464,0.9409212470054626
1790341546780272000,5.818272216796875,10.24239444732666,0.7589619159698486,0.7206547260284424
1790341546796777000,5.83477685546875,9.409213066101074,0.6392518281936646,0.10773907601833344
1790341546813224000,5.851223876953125,10.220847129821777,0.3423708379268646,0.038307227194309235
1790341546829703200,5.867703125,10.26394271850586,0.3998316824436188,0.16759411990642548
1790341546846152700,5.884152587890625,10.11550235748291,-0.06464344263076782,-0.5578489899635315
1790341546862532600,5.90053271484375,9.706093788146973,-0.33039984107017517,-0.5099649429321289
1790341546879010300,5.91701025390625,10.070012092590332,-0.038307227194309235,-0.8690952062606812
1790341546895454000,5.933453857421875,10.376470565795898,0.038307227194309235,-1.3718775510787964
1790341546911899000,5.94989892578125,9.911994934082031,0.19871874153614044,-0.8044517636299133
1790341546928343300,5.96634326171875,10.704475402832031,1.3000515699386597,-0.6655880808830261
1790341546944811500,5.9828115234375,10.340557098388672,0.9744400978088379,0.21547815203666687
1790341546961255400,5.99925537109375,10.407594680786133,1.723825216293335,0.9672574996948242
1790341546977700400,6.015700439453125,7.95832633972168,2.875436305999756,0.17477671802043915
1790341546994064600,6.032064697265625,9.68933391571045,1.656787633895874,0.6512228846549988
1790341547010505200,6.048505126953125,8.188169479370117,2.6384103298187256,1.3934253454208374
1790341547026949400,6.064949462890625,9.2033109664917,3.706224203109741,0.3878606855869293
1790341547043453000,6.081452880859375,8.949525833129883,2.9281086921691895,1.8315643072128296
1790341547059879700,6.097879638671875,9.251194953918457,3.069366693496704,0.7613561153411865
1790341547076359200,6.114359130859375,9.694122314453125,3.098097085952759,0.4836287498474121
1790341547092806100,6.13080615234375,9.799467086791992,2.4444799423217773,0.4189853072166443
1790341547109254000,6.14725390625,9.473855972290039,2.2697031497955322,0.22026655077934265
1790341547125735400,6.1637353515625,10.307038307189941,2.8155810832977295,0.6703764796257019
1790341547142181400,6.180181396484375,9.600749015808105,3.5625722408294678,0.08619125932455063
1790341547158630100,6.196630126953125,8.705317497253418,3.318363666534424,-0.14365209639072418
1790341547175078000,6.213077880859375,8.322244644165039,4.146757125854492,0.47884035110473633
1790341547191549700,6.2295498046875,8.283937454223633,3.141192674636841,0.45010992884635925
1790341547207959800,6.245959716796875,8.884882926940918,4.572925090789795,0.2849099934101105
1790341547224438500,6.2624384765625,8.779537200927734,3.450044631958008,0.5578489899635315
1790341547240932400,6.278932373046875,9.344569206237793,3.9863457679748535,0.9050082564353943
1790341547257377800,6.295377685546875,9.093177795410156,3.1675288677215576,0.5554547905921936
1790341547273850600,6.3118505859375,10.402806282043457,3.643975019454956,1.0271124839782715
1790341547290326800,6.328326904296875,9.074024200439453,3.4979286193847656,0.5027823448181152
1790341547306773800,6.344773681640625,9.074024200439453,3.287238836288452,0.5291185975074768
1790341547323222300,6.36122216796875,9.897629737854004,3.0861260890960693,-0.15083470940589905
1790341547339669500,6.37766943359375,9.749189376831055,3.0166940689086914,-0.47644615173339844
1790341547356117500,6.394117431640625,9.320627212524414,3.2585084438323975,0.0454898327589035
1790341547372564200,6.410564208984375,9.337387084960938,3.203441858291626,0.5099649429321289
1790341547389011700,6.42701171875,9.301473617553711,3.5266590118408203,0.6392518281936646
1790341547405458400,6.44345849609375,9.244012832641602,3.1220390796661377,0.7015010714530945
1790341547421904100,6.459904052734375,9.622296333312988,3.3231520652770996,0.8523358106613159
1790341547438348300,6.476348388671875,9.217676162719727,3.1507694721221924,0.29209262132644653
1790341547454793200,6.492793212890625,10.007762908935547,2.6839001178741455,-0.026336219161748886
1790341547471238400,6.50923828125,9.737217903137207,2.8850131034851074,-0.5051765441894531
1790341547487714300,6.52571435546875,9.66299819946289,4.077325344085693,0.3232172429561615
1790341547504161800,6.542161865234375,9.11233139038086,2.7054479122161865,-0.22266076505184174
1790341547520690700,6.558690673828125,10.105925559997559,3.3734302520751953,-0.011971008032560349
1790341547537038600,6.57503857421875,9.155426979064941,3.6990416049957275,0.28730419278144836
1790341547553517800,6.591517822265625,9.100360870361328,2.31758713722229,-0.05746084079146385
1790341547569962200,6.607962158203125,10.005369186401367,3.5482068061828613,1.8938134908676147
1790341547586407000,6.624406982421875,9.375694274902344,3.9408559799194336,0.6512228846549988
1790341547602848800,6.640848876953125,9.466673851013184,3.222595453262329,-0.4572925269603729
1790341547619294500,6.65729443359375,8.846575736999512,3.2154128551483154,0.8523358106613159
1790341547635686700,6.673686767578125,8.992621421813965,3.1196448802948,1.1061211824417114
1790341547652181000,6.690180908203125,9.138668060302734,3.44765043258667,-0.31842881441116333
1790341547668630500,6.706630615234375,9.05487060546875,2.7940332889556885,0.7805097699165344
1790341547685102600,6.7231025390625,9.9000244140625,3.6391866207122803,0.3495534360408783
1790341547701544200,6.739544189453125,8.705317497253418,3.0334534645080566,-0.45010992884635925
1790341547717986000,6.755986083984375,8.944737434387207,3.2800562381744385,1.2401964664459229
1790341547734431200,6.77243115234375,9.399636268615723,2.5522189140319824,0.4405331015586853
1790341547750873300,6.788873291015625,9.093177795410156,3.6296098232269287,0.2106897532939911
1790341547767319300,6.8053193359375,9.832986831665039,2.7006595134735107,0.5578489899635315
1790341547783793700,6.821793701171875,9.445125579833984,3.3279404640197754,0.8762778043746948
1790341547800237600,6.838237548828125,9.05247688293457,3.0597896575927734,0.8355764150619507
1790341547816679200,6.85467919921875,10.091560363769531,2.4013843536376953,0.12928688526153564
1790341547833121000,6.87112109375,9.514557838439941,2.5977089405059814,0.7422025203704834
1790341547849564400,6.887564453125,9.011775016784668,2.5953147411346436,0.37828385829925537
1790341547866009300,6.90400927734375,10.445901870727539,1.8411411046981812,1.6687586307525635
1790341547882488300,6.92048828125,8.96389102935791,4.048594951629639,0.4692635238170624
1790341547898933800,6.936933837890625,10.079588890075684,2.389413356781006,0.6200982332229614
1790341547915373800,6.953373779296875,8.863334655761719,2.4420857429504395,1.1659762859344482
1790341547931816400,6.96981640625,8.820239067077637,3.380612850189209,0.47405192255973816
1790341547948256500,6.986256591796875,8.951920509338379,0.7876923680305481,-0.5339069962501526
1790341547964695600,7.002695556640625,10.579977035522461,2.161964178085327,-0.181959331035614
1790341547981162200,7.019162353515625,9.643844604492188,2.9305028915405273,-0.5817909836769104
1790341547997604400,7.035604248046875,9.99100399017334,2.0901381969451904,-1.2761094570159912
1790341548014048500,7.052048583984375,7.972691535949707,2.0039467811584473,-0.6967126727104187
1790341548030522000,7.068522216796875,10.54645824432373,0.21308395266532898,-0.8834604024887085
1790341548046967000,7.084967041015625,10.613495826721191,2.959233283996582,-0.27054479718208313
1790341548062449400,7.100449462890625,12.038045883178711,0.7493851184844971,-0.8834604024887085
1790341548078891300,7.116891357421875,8.81784439086914,4.153939723968506,0.933738648891449
1790341548095337200,7.133337158203125,7.187393665313721,2.233790159225464,-0.1412578970193863
1790341548111784200,7.1497841796875,7.728483200073242,2.655169725418091,2.121262788772583
1790341548127219200,7.16521923828125,8.418013572692871,3.8307228088378906,0.3878606855869293
1790341548143720200,7.18172021484375,7.1921820640563965,1.824381709098816,-1.9536685943603516
1790341548160165400,7.198165283203125,11.705251693725586,4.137180328369141,3.2082302570343018
1790341548176608500,7.2146083984375,8.133103370666504,-0.1149216815829277,0.05985504388809204
1790341548193054200,7.23105419921875,8.583212852478027,0.4884171485900879,-1.3311761617660522
1790341548209538000,7.2475380859375,5.772420406341553,0.727837324142456,-0.7493851184844971
1790341548226002700,7.264002685546875,12.631808280944824,2.4660277366638184,1.601720929145813
1790341548242452200,7.2804521484375,11.408370971679688,2.801215887069702,-1.1468225717544556
1790341548258901500,7.296901611328125,8.688557624816895,2.564189910888672,0.2825157940387726
1790341548275379200,7.313379150390625,6.67982292175293,2.9951462745666504,1.623268723487854
1790341548291827700,7.32982763671875,7.182605266571045,-0.9074024558067322,-0.090979665517807
1790341548308277000,7.346277099609375,12.418724060058594,0.3711012601852417,0.45250412821769714
1790341548324723700,7.3627236328125,10.611102104187012,1.2641384601593018,1.1252747774124146
1790341548341167400,7.37916748046875,14.528016090393066,1.867477297782898,2.0159177780151367
1790341548357611000,7.395611083984375,7.247248649597168,0.6416460275650024,0.16759411990642548
1790341548374058000,7.41205810546875,7.364564418792725,-0.22505496442317963,-1.113303780555725
1790341548390506200,7.42850634765625,7.493851184844971,0.1388636976480484,0.7350199222564697
1790341548406951700,7.44495166015625,7.223306655883789,-0.40462008118629456,0.8738836050033569
1790341548423398400,7.4613984375,13.414711952209473,0.6847416758537292,-0.8738836050033569
1790341548439846700,7.4778466796875,10.163386344909668,0.3471592366695404,-0.6775590777397156
1790341548456297500,7.49429736328125,9.334992408752441,0.751779317855835,0.4620809257030487
1790341548472764700,7.5107646484375,11.171344757080078,2.2218191623687744,1.6041151285171509
1790341548489213700,7.527213623046875,10.84094524383545,2.585737943649292,2.964021682739258
1790341548505661700,7.54366162109375,10.266336441040039,0.4644751250743866,1.7812861204147339
1790341548522135000,7.560135009765625,7.85537576675415,0.12449848651885986,-0.12689268589019775
1790341548538518300,7.576518310546875,9.715670585632324,0.3447650372982025,0.6631938815116882
1790341548554963700,7.592963623046875,9.421183586120605,1.7836803197860718,1.4724340438842773
1790341548571409000,7.609408935546875,8.60236644744873,0.6655880808830261,0.5937620401382446
1790341548587888600,7.625888671875,9.102754592895508,-0.07182604819536209,0.727837324142456
1790341548604348400,7.642348388671875,10.20887565612793,-0.5339069962501526,-0.17238251864910126
1790341548620814000,7.65881396484375,9.955090522766113,-0.21787235140800476,0.3758896589279175
1790341548637318000,7.67531787109375,9.138668060302734,0.2322375625371933,0.14844051003456116
1790341548653816300,7.69181640625,8.899248123168945,0.31842881441116333,-0.19393034279346466
1790341548670263600,7.708263671875,10.29746150970459,1.1037269830703735,0.6655880808830261
1790341548686711300,7.724711181640625,10.137049674987793,0.2513911724090576,0.3926490843296051
1790341548703159600,7.74115966796875,10.548852920532227,0.7805097699165344,-0.7996633648872375
1790341548719635700,7.7576357421875,10.575188636779785,0.811634361743927,0.2585737705230713
1790341548736082000,7.77408203125,10.828974723815918,1.2713210582733154,0.2298433631658554
1790341548752528400,7.7905283203125,9.02135181427002,1.5442601442337036,1.37906014919281
1790341548769003000,7.8070029296875,10.955866813659668,0.9145850539207458,-0.08140286058187485
1790341548785450800,7.82345068359375,9.083600997924805,1.1228805780410767,0.16519992053508759
1790341548801899300,7.839899169921875,9.155426979064941,0.7637503147125244,0.7781155705451965
1790341548818346000,7.856345947265625,12.658143997192383,1.0103530883789062,-1.6065093278884888
1790341548834794000,7.8727939453125,9.528923034667969,1.4389152526855469,-0.2801215946674347
1790341548851242500,7.889242431640625,8.734047889709473,1.161187767982483,2.118868589401245
1790341548867690000,7.90568994140625,11.585541725158691,1.434126853942871,-0.2322375625371933
1790341548884183300,7.922183349609375,8.920795440673828,1.7860745191574097,0.2059013396501541
1790341548900630500,7.938630615234375,9.725247383117676,1.137245774269104,1.0414776802062988
1790341548917077500,7.955077392578125,9.78989028930664,1.678335428237915,0.2585737705230713
1790341548933524000,7.97152392578125,9.600749015808105,2.3487119674682617,0.49799394607543945
1790341548949971500,7.987971435546875,8.973467826843262,1.0749965906143188,1.0797849893569946
1790341548966477000,8.00447705078125,10.493785858154297,1.3527239561080933,-0.12449848651885986
1790341548982924300,8.02092431640625,9.792284965515137,1.2282254695892334,0.6224924325942993
1790341548999371800,8.037371826171874,9.509769439697266,1.3263877630233765,0.12689268589019775
1790341549015879000,8.05387890625,9.121908187866211,1.072602391242981,-0.26096799969673157
1790341549032326100,8.070326171875,10.091560363769531,0.9648633003234863,0.9840168952941895
1790341549048801300,8.08680126953125,10.716446876525879,2.032677173614502,-0.06224924325942993
1790341549065150200,8.103150146484374,9.785101890563965,1.9177556037902832,-0.7541735172271729
1790341549081614300,8.1196142578125,7.8745293617248535,0.9313444495201111,1.1061211824417114
1790341549098135300,8.13613525390625,11.295844078063965,2.056619167327881,0.14604631066322327
1790341549114584600,8.15258447265625,8.980650901794434,0.7829039692878723,-0.10773907601833344
1790341549131063600,8.1690634765625,9.399636268615723,1.3407529592514038,1.1635819673538208
1790341549147513300,8.185513427734374,9.555258750915527,0.5147533416748047,-0.13407529890537262
1790341549163979500,8.2019794921875,10.127472877502441,1.5418659448623657,0.42616790533065796
1790341549180453600,8.21845361328125,9.495404243469238,1.4460978507995605,0.7565677165985107
1790341549196903000,8.23490283203125,9.531316757202148,1.4460978507995605,0.0454898327589035
1790341549213318700,8.251318603515625,10.362105369567871,0.6919242739677429,-0.42377370595932007
1790341549229722400,8.267722412109375,9.105149269104004,0.1604115068912506,0.5961562395095825
1790341549246241800,8.28424169921875,9.229647636413574,1.280897855758667,0.27054479718208313
1790341549262764800,8.300764892578124,9.828198432922363,0.7326257228851318,0.7374141216278076
1790341549279254800,8.3172548828125,9.919178009033203,0.4908113479614258,0.2777273952960968
1790341549295765000,8.333764892578126,9.5624418258667,1.8411411046981812,0.7781155705451965
1790341549312266000,8.350265869140625,10.232817649841309,0.17717093229293823,0.2537853717803955
1790341549328746800,8.366746826171875,9.14585018157959,1.7334020137786865,0.9241618514060974
1790341549345241600,8.38324169921875,9.583989143371582,1.0271124839782715,-0.09576806426048279
1790341549361708800,8.399708740234376,9.593565940856934,0.016759412363171577,0.993593692779541
1790341549378205700,8.416205810546876,10.378864288330078,1.1468225717544556,1.1180921792984009
1790341549394706400,8.43270654296875,9.619902610778809,1.2473790645599365,0.16759411990642548
1790341549411230000,8.44922998046875,9.284713745117188,1.0295066833496094,0.9648633003234863
1790341549427724800,8.465724853515624,9.9000244140625,1.237802267074585,0.8164227604866028
1790341549444193000,8.482193115234375,9.105149269104004,0.9457096457481384,0.3711012601852417
1790341549460716000,8.498716064453125,10.163386344909668,0.9672574996948242,0.9816226959228516
1790341549477220600,8.515220703125,9.919178009033203,1.1468225717544556,0.2849099934101105
1790341549493673000,8.5316728515625,10.108319282531738,0.727837324142456,0.016759412363171577
1790341549510151400,8.5481513671875,9.931148529052734,0.9816226959228516,0.21308395266532898
1790341549526602200,8.564602294921874,9.263166427612305,1.3527239561080933,-0.08379705995321274
1790341549543051000,8.581051025390625,9.718064308166504,0.8451532125473022,0.5530605912208557
1790341549559443500,8.597443359375,9.308655738830566,1.137245774269104,-0.10295066982507706
1790341549575894300,8.613894287109375,10.158597946166992,0.811634361743927,0.3974374830722809
1790341549592346000,8.63034619140625,8.552088737487793,1.3024457693099976,0.7637503147125244
1790341549608793900,8.6467939453125,9.945513725280762,0.8786720037460327,0.507570743560791
1790341549625242400,8.663242431640626,10.462661743164062,0.6344634294509888,-0.7254431247711182
1790341549641619000,8.679618896484374,9.0859956741333,0.871489405632019,1.1276689767837524
1790341549658067500,8.6960673828125,9.859322547912598,0.6129156351089478,0.47165772318840027
1790341549674515500,8.712515380859376,10.527304649353027,0.4381389021873474,0.11971008777618408
1790341549690962400,8.72896240234375,10.36449909210205,1.5921441316604614,0.9720458984375
1790341549707440400,8.7454404296875,10.259154319763184,0.5291185975074768,0.0071826050989329815
1790341549723889200,8.76188916015625,9.732429504394531,0.6344634294509888,0.5171475410461426
1790341549740408300,8.778408203125,9.9000244140625,0.45010992884635925,0.4357447028160095
1790341549756930600,8.7949306640625,10.620678901672363,0.6440402865409851,0.6248866319656372
1790341549773424400,8.81142431640625,9.684545516967773,0.21308395266532898,0.06703764945268631
1790341549789885700,8.8278857421875,9.634267807006836,0.7254431247711182,0.38546648621559143
1790341549806334700,8.844334716796874,10.098742485046387,1.015141487121582,1.460463047027588
1790341549822783000,8.860782958984375,10.254365921020508,0.8379706144332886,0.3064578175544739
1790341549839228000,8.877227783203125,9.5408935546875,0.7254431247711182,0.33518823981285095
1790341549855671300,8.89367138671875,9.097966194152832,0.7422025203704834,0.5291185975074768
1790341549872116200,8.9101162109375,9.940725326538086,0.363918662071228,0.33279404044151306
1790341549888563200,8.926563232421875,9.387664794921875,0.608127236366272,0.272938996553421
1790341549905117000,8.943116943359374,10.02691650390625,0.40462008118629456,0.2059013396501541
1790341549921607000,8.95960693359375,10.002974510192871,0.8307880163192749,0.545877993106842
1790341549938074000,8.97607421875,9.531316757202148,1.0678139925003052,0.17717093229293823
1790341549954551600,8.992551513671875,10.18493366241455,0.7374141216278076,0.4644751250743866
1790341549971000300,9.009000244140625,8.611943244934082,1.290474772453308,0.26815059781074524
1790341549987447600,9.025447509765625,9.248801231384277,0.6057330369949341,0.545877993106842
1790341550003955500,9.04195556640625,10.041281700134277,0.7733271718025208,0.40940847992897034
1790341550020446500,9.058446533203124,8.944737434387207,1.0103530883789062,0.5027823448181152
1790341550036951300,9.074951416015624,10.553641319274902,0.3687070608139038,0.12928688526153564
1790341550053382400,9.09138232421875,9.952696800231934,0.5219359993934631,0.545877993106842
1790341550069900000,9.107900146484376,8.195352554321289,0.8690952062606812,0.23942017555236816
1790341550086364200,9.1243642578125,10.098742485046387,0.1364694982767105,0.5506663918495178
1790341550102837000,9.1408369140625,10.474632263183594,0.31124621629714966,0.3495534360408783
1790341550119289900,9.157289794921875,9.157821655273438,0.9193734526634216,-0.5195417404174805
1790341550135737600,9.173737548828125,9.385271072387695,0.9217676520347595,0.8236053586006165
1790341550152226800,9.190226806640625,10.204087257385254,0.706289529800415,0.0694318488240242
1790341550168701000,9.206700927734374,9.739612579345703,0.6057330369949341,-0.35913026332855225
1790341550185209000,9.223208984375,10.376470565795898,0.3423708379268646,0.15083470940589905
1790341550201747000,9.239746826171874,9.8784761428833,-0.10773907601833344,0.11971008777618408
1790341550218199300,9.25619921875,10.160991668701172,1.3527239561080933,-0.21787235140800476
1790341550234562600,9.2725625,10.3549222946167,1.4197616577148438,0.48602294921875
1790341550251086300,9.28908642578125,9.277531623840332,1.7597382068634033,-0.3878606855869293
1790341550267579400,9.305579345703125,9.50737476348877,-0.05267243832349777,-1.0414776802062988
1790341550284086500,9.32208642578125,9.44991397857666,1.4700398445129395,0.002394201699644327
1790341550300568600,9.338568603515625,9.5408935546875,0.5123591423034668,-0.038307227194309235
1790341550317018400,9.355018310546875,10.441113471984863,0.43335050344467163,-0.09576806426048279
1790341550333497600,9.37149755859375,9.964667320251465,0.7469909191131592,-0.17956513166427612
1790341550349948000,9.387947998046876,9.519346237182617,0.8092401623725891,1.5322890281677246
1790341550366415400,9.404415283203125,10.108319282531738,0.6607996821403503,-0.043095629662275314
1790341550382861600,9.420861572265625,9.44991397857666,1.0797849893569946,-0.19632454216480255
1790341550399328800,9.437328857421875,9.624691009521484,0.040701430290937424,0.48602294921875
1790341550415801300,9.45380126953125,10.304644584655762,0.7637503147125244,0.026336219161748886
1790341550432252200,9.470252197265625,10.24239444732666,0.6703764796257019,-0.8523358106613159
1790341550448776000,9.48677587890625,9.62947940826416,0.29209262132644653,0.6320692300796509
1790341550465222400,9.503222412109375,9.641449928283691,0.8379706144332886,0.038307227194309235
1790341550481739000,9.519739013671876,9.734824180603027,0.5793967843055725,-0.26336219906806946
1790341550498262300,9.53626220703125,8.975862503051758,0.6248866319656372,0.3998316824436188
1790341550514725000,9.55272509765625,9.48343276977539,0.8810662031173706,-0.42856210470199585
1790341550531169500,9.56916943359375,9.32302188873291,0.4596867263317108,0.2801215946674347
1790341550547611100,9.585611083984375,10.08198356628418,0.5770025849342346,-0.44771572947502136
1790341550564093700,9.60209375,9.296685218811035,-0.05746084079146385,-0.07422025501728058
1790341550580541000,9.618541015625,9.93354320526123,0.4908113479614258,0.6009446382522583
1790341550596920000,9.634920166015625,9.818621635437012,0.05267243832349777,-0.49799394607543945
1790341550613423400,9.65142333984375,9.605537414550781,0.5770025849342346,0.2801215946674347
1790341550629870300,9.667870361328125,9.603142738342285,0.45250412821769714,0.14604631066322327
1790341550646315300,9.684315185546875,9.466673851013184,0.8643068075180054,0.19871874153614044
1790341550662760400,9.700760498046876,9.854534149169922,0.031124621629714966,-0.0454898327589035
1790341550679205600,9.71720556640625,9.35654067993164,0.40222588181495667,-0.47884035110473633
1790341550695682600,9.7336826171875,8.453926086425781,-0.33039984107017517,0.19393034279346466
1790341550712128500,9.75012841796875,10.053253173828125,0.9792284965515137,0.7565677165985107
1790341550728575700,9.76657568359375,8.87291145324707,0.30885201692581177,0.0071826050989329815
1790341550745084400,9.78308447265625,9.533711433410645,0.730231523513794,0.13168109953403473
1790341550761576000,9.799575927734375,10.350133895874023,0.8092401623725891,0.9002198576927185
1790341550778085400,9.81608544921875,8.9064302444458,0.6991068720817566,-0.5339069962501526
1790341550794533600,9.83253369140625,9.660603523254395,0.8978256583213806,0.47165772318840027
1790341550810980600,9.848980712890626,10.163386344909668,0.2106897532939911,0.30885201692581177
1790341550827430700,9.8654306640625,10.553641319274902,0.5315127968788147,-0.1149216815829277
1790341550843904000,9.881904052734376,9.801861763000488,0.4620809257030487,0.16759411990642548
1790341550860405800,9.89840576171875,9.461885452270508,0.6129156351089478,0.4405331015586853
1790341550876900600,9.914900634765624,9.81143856048584,0.035913024097681046,0.24420857429504395
1790341550893393200,9.93139306640625,10.484209060668945,0.33518823981285095,0
1790341550909858300,9.9478583984375,8.959102630615234,1.8483237028121948,0.5650315880775452
1790341550926389200,9.96438916015625,9.75397777557373,0.10534487664699554,-0.2585737705230713
1790341550942927000,9.980927001953125,9.643844604492188,1.824381709098816,0.6129156351089478
1790341550959377700,9.997377685546875,8.846575736999512,0.3902548849582672,0.9074024558067322
1790341550975828700,10.013828857421874,10.137049674987793,0.7493851184844971,-0.2082955539226532
1790341550992308200,10.03030810546875,10.014945983886719,0.4668693244457245,0.6943184733390808
1790341551008759000,10.046759033203125,10.362105369567871,0.9433154463768005,1.381454348564148
1790341551025209600,10.063209716796875,9.59596061706543,-0.10295066982507706,-0.1149216815829277
1790341551041659000,10.079658935546876,10.400412559509277,0.8882488012313843,0.9648633003234863
1790341551057967600,10.095967529296875,10.36449909210205,0.49559974670410156,0.22026655077934265
1790341551074348000,10.11234814453125,9.17697525024414,0.6057330369949341,0.06464344263076782
1790341551090759400,10.128759521484374,10.086771965026855,-0.47884035110473633,0.8188169598579407
1790341551107206400,10.145206298828125,10.055646896362305,0.828393816947937,-0.033518824726343155
1790341551123653400,10.1616533203125,9.907206535339355,-0.14844051003456116,0.26575639843940735
1790341551140102700,10.1781025390625,9.847352027893066,0.33039984107017517,0.7781155705451965
1790341551156551400,10.194551513671875,8.951920509338379,0.7637503147125244,0.22505496442317963
1790341551172995800,10.210995849609375,9.26795482635498,0.4405331015586853,0.629675030708313
1790341551189473500,10.2274736328125,9.787496566772461,0.6033388376235962,0.9074024558067322
1790341551205922800,10.2439228515625,10.029311180114746,0.23942017555236816,0.3687070608139038
1790341551222372000,10.2603720703125,9.452308654785156,0.09816227108240128,-0.7469909191131592
1790341551238849300,10.276849365234375,9.979032516479492,0.7398083209991455,0.7445967197418213
1790341551255298000,10.293298095703125,10.32858657836914,0.8858546018600464,0.30885201692581177
1790341551271747300,10.309747314453125,8.65743350982666,0.5817909836769104,-0.5267243981361389
1790341551288194800,10.32619482421875,9.62947940826416,0.17238251864910126,0.8667010068893433
1790341551304656100,10.34265625,9.66299819946289,0.26336219906806946,-0.19153612852096558
1790341551321105700,10.359105712890624,9.84256362915039,1.290474772453308,0.20111294090747833
1790341551337553700,10.3755537109375,8.712499618530273,0.19393034279346466,0.44532153010368347
1790341551354010000,10.392010009765626,9.550470352172852,0.5051765441894531,0.23702596127986908
1790341551370507500,10.408507568359376,9.59596061706543,0.689530074596405,-0.1149216815829277
1790341551387026700,10.425026611328125,9.801861763000488,0.42856210470199585,0.011971008032560349
1790341551403482600,10.441482666015625,9.038111686706543,0.15801730751991272,0.12928688526153564
1790341551419928300,10.45792822265625,10.134655952453613,0.26575639843940735,0.8667010068893433
1790341551436409300,10.474409423828124,10.036493301391602,0.8307880163192749,0.3711012601852417
1790341551452860000,10.49085986328125,9.641449928283691,0.19153612852096558,0.35913026332855225
1790341551469310200,10.507310302734375,10.077195167541504,1.2114660739898682,0.7948749661445618
1790341551485787400,10.523787353515624,9.430760383605957,-0.6991068720817566,-0.21308395266532898
1790341551502279200,10.540279052734375,10.690110206604004,1.1803414821624756,0.09576806426048279
1790341551518738700,10.55673876953125,10.108319282531738,-0.3926490843296051,0.8212111592292786
1790341551535218000,10.573218017578125,10.536881446838379,0.2513911724090576,0.6631938815116882
1790341551551667500,10.58966748046875,10.06043529510498,1.1875240802764893,0.07661445438861847
1790341551568184300,10.606184326171874,9.41400146484375,0.3208230137825012,0.5554547905921936
1790341551584632600,10.622632568359375,10.15141487121582,1.2258312702178955,0.6272808313369751
1790341551600092700,10.6380927734375,9.418789863586426,0.26815059781074524,-0.7996633648872375
1790341551616539000,10.654538818359375,8.918401718139648,0.2992752194404602,0.43335050344467163
1790341551633017000,10.67101708984375,8.968679428100586,0.47644615173339844,1.3120225667953491
1790341551649505500,10.687505615234375,9.363722801208496,-0.09816227108240128,-0.5171475410461426
1790341551665949000,10.703948974609375,9.289502143859863,1.0247182846069336,1.2330138683319092
1790341551682362000,10.720362060546876,9.99339771270752,0.24660277366638184,0.7661445140838623
1790341551698808600,10.73680859375,10.402806282043457,0.4118026793003082,-0.5410895943641663
1790341551715330600,10.75333056640625,9.255983352661133,0.37828385829925537,0.7829039692878723
1790341551731821600,10.769821533203125,11.010933876037598,0.42377370595932007,0.1173158809542656
1790341551748274700,10.786274658203125,9.835380554199219,0.40462008118629456,-0.9217676520347595
1790341551764723700,10.8027236328125,10.283096313476562,0.21308395266532898,0.9241618514060974
1790341551781168600,10.819168701171876,10.271124839782715,1.3479355573654175,0.3519476354122162
1790341551797654300,10.835654296875,9.126696586608887,0.1173158809542656,-1.048660397529602
1790341551814113500,10.852113525390624,9.99339771270752,0.950498104095459,1.3862427473068237
1790341551830587100,10.868587158203125,10.599130630493164,0.7876923680305481,-0.031124621629714966
1790341551847060500,10.885060546875,8.53532886505127,0.304063618183136,-0.10534487664699554
1790341551863552800,10.901552734375,8.904036521911621,0.09816227108240128,0.8810662031173706
1790341551879998200,10.917998291015625,10.584765434265137,1.1420341730117798,0.6105214357376099
1790341551896479200,10.934479248046875,9.370905876159668,0.7374141216278076,-0.5530605912208557
1790341551912926000,10.950926025390626,8.796297073364258,0.4668693244457245,1.259350061416626
1790341551929433600,10.96743359375,9.885659217834473,1.745373010635376,0.10295066982507706
1790341551945916400,10.98391650390625,9.428366661071777,-0.47405192255973816,-0.3064578175544739
1790341551962365700,11.00036572265625,10.129867553710938,0.8667010068893433,0.7398083209991455
1790341551978870500,11.01687060546875,10.505757331848145,0.05267243832349777,0.047884032130241394
1790341551995342600,11.033342529296876,10.522516250610352,0.08379705995321274,0.5386953949928284
1790341552011818000,11.04981787109375,10.074800491333008,0.44532153010368347,0.10295066982507706
1790341552028269300,11.066269287109375,9.246406555175781,-0.871489405632019,0.7781155705451965
1790341552044721700,11.0827216796875,10.72602367401123,0.4836287498474121,-0.4836287498474121
1790341552061130200,11.099130126953124,8.315062522888184,0.363918662071228,1.1755530834197998
1790341552077604400,11.115604248046875,10.165780067443848,0.8738836050033569,0.4644751250743866
1790341552094076000,11.132075927734375,8.53532886505127,-0.3064578175544739,-0.5171475410461426
1790341552110524000,11.14852392578125,10.663774490356445,0.8978256583213806,1.4915876388549805
1790341552126968300,11.16496826171875,8.53532886505127,0.07182604819536209,-0.8906430602073669
1790341552143414500,11.18141455078125,9.114726066589355,0.7733271718025208,0.6919242739677429
1790341552159861000,11.197861083984375,10.24000072479248,0.7015010714530945,0.24660277366638184
1790341552176337700,11.214337646484376,9.351752281188965,-0.4836287498474121,-0.5650315880775452
1790341552192801000,11.230801025390624,10.168174743652344,1.0271124839782715,0.07422025501728058
1790341552209247200,11.247247314453125,9.423578262329102,-0.0694318488240242,0.3878606855869293
1790341552225723100,11.26372314453125,9.725247383117676,0.43095630407333374,-0.7422025203704834
1790341552242172700,11.280172607421875,9.083600997924805,0.26575639843940735,0.2777273952960968
1790341552258622200,11.296622314453124,10.644620895385742,0.6009446382522583,0.7541735172271729
1790341552274908700,11.31290869140625,9.624691009521484,0.5506663918495178,-0.629675030708313
1790341552291358200,11.329358154296875,9.421183586120605,0.2777273952960968,1.0773907899856567
1790341552307805000,11.345804931640625,10.278307914733887,1.335964560508728,0.26815059781074524
1790341552324298500,11.362298583984375,9.732429504394531,0.23702596127986908,-0.26815059781074524
1790341552340758300,11.37875830078125,10.366893768310547,1.8626888990402222,0.7254431247711182
1790341552357255400,11.39525537109375,9.308655738830566,0.31364041566848755,-0.5195417404174805
1790341552373744000,11.411744140625,9.543288230895996,1.3455413579940796,-0.42377370595932007
1790341552390237200,11.4282373046875,9.385271072387695,0.47165772318840027,-0.26096799969673157
1790341552406731800,11.444731689453125,9.660603523254395,0.2346317619085312,0.8738836050033569
1790341552423257600,11.461257568359375,11.834539413452148,0.7350199222564697,-0.028730420395731926
1790341552439724500,11.477724609375,8.054094314575195,-0.06224924325942993,-0.5770025849342346
1790341552456202500,11.494202392578124,9.852140426635742,0.20350714027881622,1.2689268589019775
1790341552472692000,11.51069189453125,10.417171478271484,0.45489832758903503,-0.40701428055763245
1790341552489144300,11.527144287109374,9.904812812805176,0.38546648621559143,-0.7709329724311829
1790341552505621800,11.543621826171876,9.636661529541016,-0.14844051003456116,0.569819986820221
1790341552522068200,11.560068115234374,10.532093048095703,1.2497732639312744,0.272938996553421
1790341552538516200,11.57651611328125,9.334992408752441,0.8882488012313843,0.569819986820221
1790341552554991400,11.592991455078124,9.421183586120605,0.5602431893348694,-0.4141969084739685
1790341552571377000,11.609376953125,8.99740982055664,0.706289529800415,-0.272938996553421
1790341552587849700,11.625849609375,9.852140426635742,0.35673606395721436,0.07900865375995636
1790341552604264200,11.64226416015625,9.928754806518555,1.0342950820922852,-0.12928688526153564
1790341552620692200,11.658692138671874,8.465897560119629,-0.028730420395731926,0.14844051003456116
1790341552637165600,11.67516552734375,10.170568466186523,0.11013327538967133,0.9241618514060974
1790341552653612500,11.691612548828125,10.046070098876953,0.524330198764801,0.26096799969673157
1790341552670032600,11.70803271484375,9.605537414550781,0.48602294921875,0.8020575642585754
1790341552686530800,11.72453076171875,10.515334129333496,0.1867477297782898,0.629675030708313
1790341552703050500,11.741050537109375,9.466673851013184,1.3096283674240112,-0.6224924325942993
1790341552719572000,11.757572021484375,8.899248123168945,-0.08379705995321274,0.912190854549408
1790341552736021200,11.774021240234376,11.310209274291992,1.8842366933822632,0.08140286058187485
1790341552752499500,11.79049951171875,7.692570209503174,0.4405331015586853,0.27054479718208313
1790341552768948200,11.8069482421875,8.458714485168457,-0.6033388376235962,0.9050082564353943
1790341552785395500,11.8233955078125,12.088324546813965,1.5203180313110352,-0.8978256583213806
1790341552801870300,11.839870361328124,7.85537576675415,-0.9002198576927185,0.7805097699165344
1790341552818317300,11.8563173828125,10.469843864440918,0.5913678407669067,-0.12449848651885986
1790341552834793700,11.872793701171876,9.437943458557129,-0.9696516990661621,-1.335964560508728
1790341552851263000,11.889262939453126,10.699687004089355,0.17956513166427612,0.07182604819536209
1790341552867746300,11.905746337890625,9.251194953918457,-0.24899697303771973,-0.37828385829925537
1790341552884206300,11.922206298828126,9.691728591918945,-0.033518824726343155,-0.040701430290937424
1790341552900650000,11.93864990234375,8.468291282653809,1.647210717201233,-0.028730420395731926
1790341552917143800,11.955143798828125,10.565611839294434,-1.7525556087493896,-0.040701430290937424
1790341552933590500,11.971590576171875,9.955090522766113,0.3663128614425659,1.745373010635376
1790341552949979600,11.987979736328125,8.355764389038086,3.0813376903533936,-0.2346317619085312
1790341552966482400,12.004482421875,10.335768699645996,-2.4157495498657227,-0.1388636976480484
1790341552982928100,12.02092822265625,9.536105155944824,2.652775526046753,0.10055647045373917
1790341552999388000,12.037387939453126,9.567230224609375,3.064578056335449,1.9057846069335938
1790341553015836700,12.053836669921875,12.619836807250977,-3.315969467163086,-0.38546648621559143
1790341553032287700,12.070287841796874,11.192893028259277,2.7126305103302,-1.5059528350830078
1790341553048788000,12.0867880859375,6.414066314697266,-0.31124621629714966,1.4844050407409668
1790341553065237200,12.1032373046875,10.074800491333008,2.9089550971984863,-0.05985504388809204
1790341553081688000,12.11968798828125,8.243236541748047,-1.7980455160140991,-2.1499931812286377
1790341553098139100,12.13613916015625,9.528923034667969,1.7334020137786865,1.3958195447921753
1790341553114558000,12.152557861328125,9.641449928283691,-0.6248866319656372,-0.6560112833976746
1790341553130995500,12.168995361328125,9.35654067993164,0.811634361743927,-0.9074024558067322
1790341553147383000,12.185383056640624,9.27034854888916,0.38307225704193115,1.3024457693099976
1790341553163849700,12.201849609375,10.292673110961914,0.5363011956214905,-0.14844051003456116
1790341553180299300,12.21829931640625,9.68933391571045,0.10534487664699554,-0.608127236366272
1790341553196750000,12.23475,7.68538761138916,-0.5530605912208557,1.9991583824157715
1790341553213232400,12.251232421875,12.952630996704102,0.1628057211637497,-0.42377370595932007
1790341553229684000,12.26768408203125,8.757989883422852,0,1.7836803197860718
1790341553246131500,12.28413134765625,11.18092155456543,1.558625340461731,0.24181437492370605
1790341553262583000,12.3005830078125,11.798625946044922,-0.646434485912323,-1.0031704902648926
1790341553278984200,12.316984130859375,8.899248123168945,-0.15083470940589905,1.86508309841156
1790341553295432000,12.333431884765625,6.157886981964111,-1.4508862495422363,-3.4093432426452637
1790341553311878000,12.3498779296875,11.686098098754883,0.395043283700943,5.853823184967041
1790341553328322600,12.366322509765626,16.062698364257812,2.145204782485962,3.600879430770874
1790341553344766700,12.3827666015625,3.97916316986084,-2.609679937362671,-3.584120035171509
1790341553361215200,12.39921533203125,6.423643112182617,1.072602391242981,2.7700912952423096
1790341553377664000,12.4156640625,9.318233489990234,-1.3862427473068237,-0.17956513166427612
1790341553394111200,12.432111328125,8.60236644744873,1.6208745241165161,0.2944868206977844
1790341553410571300,12.4485712890625,10.093954086303711,-1.1348515748977661,0.2944868206977844
1790341553427015400,12.465015380859375,9.442731857299805,1.1875240802764893,-1.1635819673538208
1790341553443459800,12.4814599609375,7.532158374786377,-0.9265560507774353,0.10295066982507706
1790341553459935700,12.497935791015625,11.379640579223633,-0.24660277366638184,-0.3208230137825012
1790341553476383200,12.51438330078125,11.025299072265625,-0.9433154463768005,-1.1994950771331787
1790341553492830000,12.530829833984376,10.26394271850586,-0.5291185975074768,0.8379706144332886
1790341553509277000,12.54727685546875,11.192893028259277,0.24181437492370605,-0.047884032130241394
1790341553525721900,12.563721923828124,9.141061782836914,0.8427590131759644,1.1252747774124146
1790341553542164500,12.58016455078125,9.57201862335205,0.4596867263317108,-0.1388636976480484
1790341553558607000,12.596607177734375,8.918401718139648,0.040701430290937424,0.7733271718025208
1790341553575010600,12.613010498046876,8.4108304977417,0.16759411990642548,-0.5530605912208557
1790341553591454000,12.629453857421876,10.687716484069824,-0.6871358752250671,-0.667982280254364
1790341553607902200,12.645902099609375,9.86650562286377,1.3910311460494995,0.2801215946674347
1790341553624361200,12.662361328125,10.517727851867676,-0.021547814831137657,0.15562310814857483
1790341553640810000,12.67881005859375,11.310209274291992,0.4405331015586853,-0.1412578970193863
1790341553657287000,12.695286865234374,10.529699325561523,0.2825157940387726,0.3447650372982025
1790341553673732400,12.711732421875,10.81700325012207,0.49559974670410156,0.8259995579719543
1790341553690175000,12.728175048828126,9.229647636413574,-0.05746084079146385,-1.2258312702178955
1790341553706650400,12.744650390625,9.648633003234863,-0.181959331035614,0.42856210470199585
1790341553723097900,12.761097900390626,10.498574256896973,0.6153098344802856,-0.8044517636299133
1790341553739545600,12.777545654296874,9.064447402954102,-0.5530605912208557,-0.7637503147125244
1790341553755993900,12.793993896484375,9.885659217834473,1.1563993692398071,0.706289529800415
1790341553772441300,12.81044140625,9.730035781860352,0.2537853717803955,-0.1173158809542656
1790341553788891100,12.82689111328125,10.232817649841309,1.070208191871643,-0.9433154463768005
1790341553805336800,12.8433369140625,9.643844604492188,0.4596867263317108,-0.8212111592292786
1790341553821784000,12.8597841796875,9.41400146484375,0.7661445140838623,0.07182604819536209
1790341553838231000,12.87623095703125,9.461885452270508,0.2585737705230713,-0.8475474119186401
1790341553854680800,12.892680908203126,10.843339920043945,0.24899697303771973,0.004788403399288654
1790341553871127000,12.909126953125,10.704475402832031,0.871489405632019,-0.08140286058187485
1790341553887573500,12.925573486328124,8.99740982055664,-0.06464344263076782,0.7158663272857666
1790341553904052500,12.942052490234374,11.094730377197266,0.8810662031173706,1.4101848602294922
1790341553920498200,12.958498291015625,10.32858657836914,0.9768342971801758,-0.181959331035614
1790341553936944000,12.974944091796875,9.5624418258667,0.5554547905921936,1.1468225717544556
1790341553953352400,12.9913525390625,9.363722801208496,0.26815059781074524,0.11013327538967133
1790341553969800700,13.00780078125,8.96149730682373,0.3926490843296051,-0.6344634294509888
1790341553986250800,13.024250732421875,8.69334602355957,-0.4165911078453064,1.072602391242981
1790341554002698800,13.04069873046875,10.608707427978516,0.9145850539207458,0.4429273009300232
1790341554019146000,13.05714599609375,9.35654067993164,-0.043095629662275314,-0.8930372595787048
1790341554035592200,13.07359228515625,8.422801971435547,0.42856210470199585,1.0534487962722778
1790341554052039200,13.0900390625,10.093954086303711,0.17956513166427612,-0.0694318488240242
1790341554068419300,13.10641943359375,9.406818389892578,0.5051765441894531,-0.5961562395095825
1790341554084832500,13.12283251953125,9.229647636413574,0.7445967197418213,1.2761094570159912
1790341554101247500,13.13924755859375,10.465055465698242,-0.026336219161748886,0.3256114423274994
1790341554117693700,13.155693603515624,10.347740173339844,-0.1149216815829277,-0.646434485912323
1790341554134141700,13.1721416015625,9.50498104095459,-0.033518824726343155,0.1604115068912506
1790341554150611000,13.18861083984375,10.831368446350098,-0.22266076505184174,-0.3256114423274994
1790341554167057400,13.205057373046875,10.24000072479248,0.035913024097681046,-0.22026655077934265
1790341554183509800,13.221509765625,9.959878921508789,0.0933738648891449,0.5985504388809204
1790341554200022300,13.238022216796875,10.158597946166992,-0.002394201699644327,-0.6751648783683777
1790341554216490500,13.254490478515624,9.911994934082031,0.6416460275650024,0.2561795711517334
1790341554232937700,13.270937744140625,10.189722061157227,0.5027823448181152,-0.19393034279346466
1790341554249383000,13.2873828125,10.20887565612793,0.19153612852096558,0.2322375625371933
1790341554265830400,13.303830322265625,10.065223693847656,0.20111294090747833,0.8930372595787048
1790341554282261200,13.32026123046875,9.552865028381348,0.31364041566848755,0.05267243832349777
1790341554298658600,13.336658447265625,10.54645824432373,0.15322890877723694,0.646434485912323
1790341554315104800,13.353104736328126,9.749189376831055,0.05506663769483566,0.28969839215278625
1790341554331548200,13.369548095703125,8.540117263793945,0.8786720037460327,-0.1364694982767105
1790341554348051000,13.386051025390625,10.900800704956055,0.3471592366695404,0.3447650372982025
1790341554364505300,13.40250537109375,9.387664794921875,0.3902548849582672,-0.19153612852096558
1790341554380966400,13.41896630859375,8.17380428314209,0.6272808313369751,-0.5578489899635315
1790341554397436200,13.435436279296875,10.613495826721191,0.10773907601833344,-0.004788403399288654
1790341554413875500,13.45187548828125,11.171344757080078,-0.16759411990642548,0.21787235140800476
1790341554430320000,13.468320068359375,8.760383605957031,0.5817909836769104,-0.09816227108240128
1790341554446790700,13.484790771484375,8.803479194641113,0.7613561153411865,-0.5889736413955688
1790341554463230500,13.50123046875,10.704475402832031,0.10534487664699554,0.043095629662275314
1790341554479671300,13.51767138671875,9.859322547912598,-0.05267243832349777,-0.3280056416988373
1790341554496111400,13.534111328125,9.576807022094727,-0.043095629662275314,-0.5099649429321289
1790341554512555300,13.55055517578125,10.072406768798828,-0.4357447028160095,-0.3926490843296051
1790341554529002500,13.56700244140625,10.15141487121582,-0.6727706789970398,-0.14604631066322327
1790341554545447700,13.58344775390625,9.476250648498535,-0.8307880163192749,-0.5291185975074768
1790341554561894700,13.599894775390625,10.644620895385742,-1.2449848651885986,-0.4189853072166443
1790341554578344000,13.616343994140625,10.187328338623047,-1.0031704902648926,0.021547814831137657
1790341554594790400,13.632790283203125,9.77791976928711,-0.5482721924781799,0.8834604024887085
1790341554611238700,13.64923876953125,8.920795440673828,-0.09576806426048279,1.1755530834197998
1790341554627665400,13.66566552734375,10.153809547424316,0.009576806798577309,2.250549554824829
1790341554644134700,13.682134765625,9.66539192199707,-0.40222588181495667,2.3942017555236816
1790341554660578600,13.69857861328125,9.615114212036133,-1.2018892765045166,2.5929205417633057
1790341554677020400,13.7150205078125,9.241618156433105,-0.20350714027881622,0.014365210197865963
1790341554693493200,13.7314931640625,9.627084732055664,-0.3974374830722809,-0.12689268589019775
1790341554709954600,13.74795458984375,9.782708168029785,0.1867477297782898,0.26096799969673157
1790341554726437000,13.76443701171875,11.152191162109375,0.950498104095459,0.31842881441116333
1790341554742886700,13.78088671875,8.698134422302246,-0.3471592366695404,-0.17717093229293823
1790341554759333600,13.797333740234375,10.378864288330078,0.10055647045373917,0.7565677165985107
1790341554775811800,13.813811767578125,10.187328338623047,0.035913024097681046,0.6416460275650024
1790341554792264700,13.8302646484375,10.680533409118652,0.2753331959247589,0.31842881441116333
1790341554808745200,13.8467451171875,10.194510459899902,0.15801730751991272,-0.13407529890537262
1790341554825193200,13.863193115234376,10.216058731079102,0.9816226959228516,0.9600749015808105
1790341554841667600,13.87966748046875,10.237606048583984,0.8930372595787048,0.5027823448181152
1790341554858119400,13.896119384765624,10.488997459411621,0.9696516990661621,0.4189853072166443
1790341554874567000,13.91256689453125,9.864110946655273,0.7445967197418213,0.6512228846549988
1790341554891036700,13.92903662109375,9.677363395690918,1.048660397529602,0.37828385829925537
1790341554907484400,13.945484375,8.166622161865234,1.4317326545715332,0.35913026332855225
1790341554923933000,13.961932861328124,7.671022415161133,1.5897499322891235,1.1324573755264282
1790341554940435700,13.978435791015626,8.937555313110352,1.4437036514282227,0.4405331015586853
1790341554956878000,13.994878173828125,9.430760383605957,0.24181437492370605,0.021547814831137657
1790341554973268700,14.011268798828125,9.730035781860352,0.7852981686592102,0.9528923034667969
1790341554989714700,14.027714599609375,9.909601211547852,-1.3838485479354858,0.9624691009521484
1790341555006165000,14.0441650390625,10.51054573059082,2.1978771686553955,0.768538773059845
1790341555022673000,14.0606728515625,9.050082206726074,-1.5322890281677246,0.10773907601833344
1790341555039163100,14.0771630859375,10.778696060180664,2.4827871322631836,0.22505496442317963
1790341555055590000,14.09358984375,8.061277389526367,-0.6440402865409851,0.181959331035614
1790341555072057600,14.1100576171875,10.304644584655762,2.6024973392486572,-0.021547814831137657
1790341555088534500,14.126534423828126,7.8960771560668945,-0.5195417404174805,1.2641384601593018
1790341555104980500,14.14298046875,12.045228958129883,0.6967126727104187,0.5817909836769104
1790341555121429800,14.1594296875,9.78989028930664,0.3232172429561615,0.689530074596405
1790341555137941200,14.175941162109375,10.445901870727539,-0.004788403399288654,0.629675030708313
1790341555154385700,14.1923857421875,11.331756591796875,0.4189853072166443,0.040701430290937424
1790341555170832400,14.208832275390625,9.411606788635254,-0.023942016065120697,0.667982280254364
1790341555187308300,14.225308349609374,10.539276123046875,1.1228805780410767,0.9385270476341248
1790341555203754000,14.24175390625,9.445125579833984,-0.06224924325942993,-0.033518824726343155
1790341555220198700,14.25819873046875,10.864887237548828,1.8100165128707886,0.524330198764801
1790341555236641800,14.274641845703124,9.57441234588623,1.0534487962722778,0.5315127968788147
1790341555253090800,14.2910908203125,9.26795482635498,1.359906554222107,0.1628057211637497
1790341555269539000,14.3075390625,9.346963882446289,1.6855180263519287,0.40222588181495667
1790341555285993000,14.323992919921874,9.308655738830566,1.8938134908676147,0.40940847992897034
1790341555302383600,14.340383544921876,9.155426979064941,1.623268723487854,0.30885201692581177
1790341555318831900,14.356831787109375,10.072406768798828,2.2697031497955322,-0.2968810200691223
1790341555335311000,14.37331103515625,8.638279914855957,1.1994950771331787,0.16998831927776337
1790341555351801300,14.38980126953125,9.425971984863281,1.4077905416488647,0.40222588181495667
1790341555368263700,14.406263671875,9.75637149810791,1.9967641830444336,0.36152446269989014
1790341555384734500,14.422734375,9.473855972290039,0.608127236366272,0.3878606855869293
1790341555401210600,14.439210693359374,10.721235275268555,1.7573440074920654,0.8188169598579407
1790341555417725400,14.455725341796875,9.528923034667969,0.7230489253997803,-0.047884032130241394
1790341555434242000,14.472241943359375,9.552865028381348,1.623268723487854,0.5506663918495178
1790341555450702600,14.48870263671875,9.835380554199219,1.3455413579940796,0.5841852426528931
1790341555467158000,14.505157958984375,8.918401718139648,1.6304513216018677,-0.11971008777618408
1790341555483632000,14.521632080078126,8.576030731201172,2.2625205516815186,0.17956513166427612
1790341555500074800,14.53807470703125,9.071630477905273,0.7110779285430908,-0.031124621629714966
1790341555516521500,14.554521484375,10.417171478271484,1.2401964664459229,0.4213795065879822
1790341555532972800,14.570972900390625,9.030928611755371,0.5889736413955688,0.2992752194404602
1790341555549420500,14.587420654296874,9.746794700622559,0.5099649429321289,0.45489832758903503
1790341555565868800,14.603868896484375,10.383652687072754,1.1300631761550903,0.4429273009300232
1790341555582339600,14.620339599609375,9.583989143371582,0.3471592366695404,0.33279404044151306
1790341555598858200,14.636858154296876,11.12346076965332,0.22505496442317963,0.002394201699644327
1790341555615301600,14.653301513671876,10.433931350708008,0.20111294090747833,0.4908113479614258
1790341555631714300,14.66971435546875,10.44350814819336,-0.14365209639072418,-0.090979665517807
1790341555648199200,14.68619921875,10.584765434265137,0.3519476354122162,0.6392518281936646
1790341555664686800,14.702686767578125,9.818621635437012,0.40222588181495667,0.5291185975074768
1790341555681203500,14.719203369140626,9.832986831665039,0.2322375625371933,0.31603461503982544
1790341555697666800,14.735666748046874,9.72285270690918,1.742978811264038,0.07422025501728058
1790341555714113500,14.752113525390625,8.844181060791016,0.9624691009521484,-0.7254431247711182
1790341555730559500,14.7685595703125,8.810662269592285,0.8810662031173706,-0.3256114423274994
1790341555747005400,14.78500537109375,9.016563415527344,0.6631938815116882,-0.3423708379268646
1790341555763450600,14.80145068359375,10.496180534362793,0.42616790533065796,0.15083470940589905
1790341555779898600,14.817898681640624,9.660603523254395,0.5027823448181152,0.021547814831137657
1790341555796344000,14.834343994140625,10.014945983886719,0.5602431893348694,0.7158663272857666
1790341555812793600,14.850793701171876,9.873687744140625,0.3663128614425659,0.9481038451194763
1790341555829243400,14.867243408203125,9.318233489990234,0.24181437492370605,1.0414776802062988
1790341555845693700,14.883693603515624,9.959878921508789,0.11971008777618408,1.8291701078414917
1790341555862139600,14.9001396484375,10.000580787658691,-0.5410895943641663,1.6160861253738403
1790341555878611000,14.91661083984375,10.690110206604004,-1.0199298858642578,1.4197616577148438
1790341555895057700,14.9330576171875,10.503362655639648,-1.3000515699386597,1.534683346748352
1790341555911502300,14.94950244140625,10.160991668701172,-1.577778935432434,1.357512354850769
1790341555927975400,14.965975341796875,10.228029251098633,-1.9105730056762695,1.0031704902648926
1790341555944420000,14.982420166015626,9.93354320526123,-0.768538773059845,-0.24181437492370605
1790341555960864300,14.9988642578125,9.284713745117188,-0.4836287498474121,-1.278503656387329
1790341555977147100,15.015147216796874,10.587160110473633,0.28969839215278625,1.479616641998291
1790341555993595000,15.031594970703125,9.9000244140625,0.0694318488240242,0.19153612852096558
1790341556010042600,15.048042724609376,8.810662269592285,0.31124621629714966,0.028730420395731926
1790341556026535700,15.06453564453125,9.100360870361328,-0.4572925269603729,0.9217676520347595
1790341556043004700,15.081004638671875,9.536105155944824,1.0414776802062988,1.158793568611145
1790341556059443500,15.097443359375,9.50737476348877,-0.033518824726343155,0.5315127968788147
1790341556075927000,15.113927001953124,8.844181060791016,-0.22744916379451752,1.1755530834197998
1790341556092382200,15.13038232421875,8.959102630615234,0.4884171485900879,1.821987509727478
1790341556108857600,15.146857666015626,8.757989883422852,-0.9217676520347595,-0.06703764945268631
1790341556125262800,15.163262939453125,11.17852783203125,-2.054224967956543,0.6272808313369751
1790341556141708500,15.17970849609375,10.809821128845215,1.2952631711959839,2.2864625453948975
1790341556158159000,15.1961591796875,10.18493366241455,-3.071760892868042,0.0933738648891449
1790341556174667300,15.212667236328125,10.299856185913086,1.946485996246338,0.021547814831137657
1790341556191114200,15.2291142578125,9.21288776397705,1.216254472732544,-0.4165911078453064
1790341556207589600,15.245589599609374,7.436390399932861,0.608127236366272,-3.404554843902588
1790341556224040400,15.26204052734375,8.53532886505127,-2.9735984802246094,2.896984100341797
1790341556240493600,15.27849365234375,13.115436553955078,3.7684733867645264,2.7557260990142822
1790341556256970800,15.294970703125,7.0317702293396,-1.400607943534851,-3.8139634132385254
1790341556273424000,15.311423828125,10.742782592773438,3.799597978591919,1.137245774269104
1790341556289898000,15.32789794921875,7.046135425567627,-2.403778553009033,2.2649147510528564
1790341556306345000,15.344344970703125,12.617443084716797,2.2385785579681396,-1.6927006244659424
1790341556322806300,15.36080615234375,5.906495571136475,-1.5083470344543457,-0.3423708379268646
1790341556339253500,15.37725341796875,10.347740173339844,0.05746084079146385,1.9512743949890137
1790341556355701800,15.39370166015625,10.105925559997559,2.4636335372924805,-1.1492167711257935
1790341556372167400,15.41016748046875,9.040505409240723,-0.35673606395721436,1.6831238269805908
1790341556388617000,15.426616943359376,11.779472351074219,1.8100165128707886,2.612074136734009
1790341556405069000,15.443069091796875,8.169015884399414,0.395043283700943,-0.8858546018600464
1790341556421559300,15.459559326171876,8.851364135742188,-1.4484920501708984,1.2018892765045166
1790341556438007800,15.4760078125,11.91354751586914,-3.318363666534424,0.6320692300796509
1790341556454458400,15.492458251953124,14.664484977722168,2.188300371170044,3.2609026432037354
1790341556470901000,15.50890087890625,7.163451671600342,-3.00711727142334,1.4101848602294922
1790341556487350300,15.525350341796875,9.734824180603027,0.4572925269603729,-1.7094600200653076
1790341556503797800,15.5417978515625,17.944541931152344,9.41639518737793,-0.9528923034667969
1790341556520252200,15.558252197265626,1.1492167711257935,-0.5985504388809204,0.272938996553421
1790341556536751000,15.574751220703124,9.926360130310059,-0.9672574996948242,-4.654327869415283
1790341556553201400,15.591201416015625,3.56017804145813,-2.492363929748535,-1.9105730056762695
1790341556569680600,15.6076806640625,7.762001991271973,-2.0039467811584473,3.1052796840667725
1790341556586128400,15.62412841796875,17.161638259887695,-2.2218191623687744,1.8698714971542358
1790341556602505000,15.6405048828125,7.216124057769775,1.0295066833496094,-3.734954595565796
1790341556618969600,15.656969482421875,10.1753568649292,1.1180921792984009,2.9281086921691895
1790341556635422000,15.673421875,10.642226219177246,-1.1180921792984009,1.5658079385757446
1790341556651805700,15.6898056640625,9.500192642211914,1.45806884765625,-2.920926094055176
1790341556668284200,15.7062841796875,8.020575523376465,-1.338358759880066,2.322375535964966
1790341556684749800,15.722749755859375,11.099518775939941,0.5315127968788147,0.6033388376235962
1790341556701222700,15.73922265625,10.299856185913086,-0.3663128614425659,-0.9528923034667969
1790341556717719800,15.7557197265625,10.137049674987793,0.26336219906806946,2.346317768096924
1790341556734166300,15.772166259765624,9.59596061706543,0.629675030708313,-0.6177040338516235
1790341556750611000,15.78861083984375,9.102754592895508,0.011971008032560349,-0.1149216815829277
1790341556767059000,15.805058837890625,10.007762908935547,-0.2561795711517334,1.3694833517074585
1790341556783548200,15.821548095703125,10.266336441040039,0.4165911078453064,0.05267243832349777
1790341556800043500,15.83804345703125,9.351752281188965,-0.14844051003456116,0.6177040338516235
1790341556816525600,15.854525634765626,9.801861763000488,0.15562310814857483,0.9265560507774353
1790341556833013200,15.87101318359375,9.921571731567383,0.31603461503982544,0.07182604819536209
1790341556849489200,15.8874892578125,9.617507934570312,-0.3711012601852417,0.3016694188117981
1790341556865967900,15.9039677734375,11.257535934448242,0.38307225704193115,0.6631938815116882
1790341556882463000,15.920462890625,9.821015357971191,0.09816227108240128,-0.002394201699644327
1790341556898942700,15.936942626953124,10.177751541137695,0.27054479718208313,0.0933738648891449
1790341556915459600,15.95345947265625,10.072406768798828,0.6440402865409851,0.9265560507774353
1790341556931946200,15.9699462890625,9.739612579345703,0.15322890877723694,-0.2801215946674347
1790341556948413200,15.9864130859375,10.515334129333496,0.5195417404174805,0.507570743560791
1790341556964874200,16.002874267578125,10.093954086303711,-0.1604115068912506,0.6488286852836609
1790341556981416200,16.019416259765624,10.101137161254883,0.20350714027881622,0.1628057211637497
1790341556997905700,16.03590576171875,10.687716484069824,0.6512228846549988,0.8355764150619507
1790341557014397000,16.05239697265625,9.715670585632324,0.24899697303771973,0.8236053586006165
1790341557030861800,16.06886181640625,9.224859237670898,0.6488286852836609,-0.4644751250743866
1790341557047354000,16.08535400390625,9.093177795410156,0.44771572947502136,0.6991068720817566
1790341557063802000,16.101802001953125,9.428366661071777,0.33758243918418884,0.6200982332229614
1790341557080248000,16.118248046875,9.435548782348633,-0.4165911078453064,-0.8427590131759644
1790341557096762600,16.1347626953125,10.735600471496582,-0.21308395266532898,0.8140285611152649
1790341557113244200,16.151244140625,9.979032516479492,-0.5746083855628967,0.7924807667732239
1790341557129740300,16.167740234375,9.785101890563965,0.811634361743927,-0.05506663769483566
1790341557146256100,16.184256103515626,9.11233139038086,-0.6200982332229614,1.170764684677124
1790341557162775000,16.200775146484375,9.938331604003906,0.45010992884635925,-0.2801215946674347
1790341557179260200,16.21726025390625,9.93354320526123,0.0454898327589035,0.3208230137825012
1790341557195760000,16.233760009765625,10.38844108581543,-0.1364694982767105,0.5195417404174805
1790341557212220200,16.25022021484375,9.696516990661621,0.6129156351089478,0.27054479718208313
1790341557228735200,16.2667353515625,9.658209800720215,0.23942017555236816,0.4141969084739685
1790341557245222700,16.28322265625,9.062053680419922,0.181959331035614,1.015141487121582
1790341557261715500,16.299715576171874,9.188945770263672,-0.8547300100326538,0.17717093229293823
1790341557278214000,16.3162138671875,10.747570991516113,0.4357447028160095,0.5985504388809204
1790341557294673700,16.332673583984374,9.349357604980469,-1.4891934394836426,0.3423708379268646
1790341557311200000,16.349199951171876,11.154585838317871,0.9888052940368652,1.0773907899856567
1790341557327732500,16.365732421875,8.983044624328613,0.4118026793003082,-0.6344634294509888
1790341557344214800,16.38221484375,7.881711959838867,-0.48602294921875,-0.569819986820221
1790341557360685600,16.398685546875,10.38844108581543,0.9193734526634216,2.6599581241607666
1790341557377161000,16.415160888671874,8.216899871826172,-1.8195933103561401,-0.2106897532939911
1790341557393668400,16.43166845703125,11.12106704711914,1.4269442558288574,0.7781155705451965
1790341557410151200,16.448151123046873,8.803479194641113,-0.37828385829925537,2.1284453868865967
1790341557426607000,16.464607177734376,8.382100105285645,0.002394201699644327,-1.1468225717544556
1790341557443063300,16.481063232421874,9.41400146484375,1.0223240852355957,0.9600749015808105
1790341557459525000,16.497525146484374,9.095572471618652,-1.601720929145813,1.4915876388549805
1790341557476033300,16.514033203125,11.27190113067627,1.259350061416626,-0.47644615173339844
1790341557492521500,16.530521484375,9.440337181091309,-0.363918662071228,2.31758713722229
1790341557509004500,16.547004638671876,9.346963882446289,-0.7326257228851318,0.031124621629714966
1790341557525491200,16.5634912109375,10.120290756225586,0.1364694982767105,-0.18914192914962769
1790341557541986000,16.579986083984377,10.256759643554688,-0.8236053586006165,2.1356279850006104
1790341557558478000,16.59647802734375,10.742782592773438,0.912190854549408,-0.1867477297782898
1790341557574967800,16.6129677734375,7.862558364868164,-0.4692635238170624,0.17717093229293823
1790341557591459000,16.629458984375,9.619902610778809,0.4884171485900879,0.569819986820221
1790341557608011300,16.64601123046875,10.225635528564453,-0.2992752194404602,-0.3495534360408783
1790341557624509200,16.66250927734375,11.085153579711914,1.0678139925003052,0.3519476354122162
1790341557641027000,16.679027099609375,9.059659004211426,-0.6703764796257019,0.24181437492370605
1790341557657494800,16.695494873046876,9.943120002746582,0.2561795711517334,-0.5482721924781799
1790341557673981400,16.7119814453125,9.976638793945312,-0.1388636976480484,0.7996633648872375
1790341557690439400,16.728439453125,9.821015357971191,0.21308395266532898,2.051830768585205
1790341557706935800,16.744935791015624,8.655038833618164,-0.9265560507774353,-0.5746083855628967
1790341557723438800,16.76143896484375,11.161767959594727,0.5003881454467773,2.296039342880249
1790341557739927800,16.777927734375,7.802703380584717,-0.8738836050033569,-0.5530605912208557
1790341557756416300,16.794416259765626,9.378087997436523,1.1085153818130493,1.4317326545715332
1790341557772917800,16.810917724609375,8.382100105285645,-1.1635819673538208,-0.09816227108240128
1790341557789411600,16.82741162109375,10.38844108581543,0.4572925269603729,0.9576807022094727
1790341557805929000,16.843928955078123,9.411606788635254,-0.8451532125473022,-0.1388636976480484
1790341557822381300,16.86038134765625,11.018115997314453,0.5913678407669067,0.10534487664699554
1790341557838865400,16.876865478515626,9.337387084960938,-0.3663128614425659,1.766920804977417
1790341557855389700,16.8933896484375,9.651026725769043,0.6560112833976746,-1.2042834758758545
1790341557871880700,16.909880615234375,10.153809547424316,0.395043283700943,0.8236053586006165
1790341557888359700,16.926359619140626,9.828198432922363,0.11971008777618408,0.2513911724090576
1790341557904875300,16.942875244140627,10.831368446350098,0.7829039692878723,0.3064578175544739
1790341557921357600,16.959357666015624,10.093954086303711,0.5195417404174805,1.3431471586227417
1790341557937818000,16.975818115234375,9.928754806518555,0.28730419278144836,0.6177040338516235
1790341557954308400,16.992308349609374,8.621520042419434,0.8427590131759644,0.08619125932455063
1790341557970774000,17.00877392578125,8.38449478149414,-0.5171475410461426,0.6991068720817566
1790341557987257600,17.025257568359375,10.500968933105469,0.1173158809542656,0.05746084079146385
1790341558003750100,17.041750244140626,10.223240852355957,-0.10534487664699554,0.6991068720817566
1790341558020251000,17.0582509765625,9.701305389404297,-0.1628057211637497,0.2753331959247589
1790341558036744400,17.074744384765626,9.672574996948242,0.26815059781074524,1.0534487962722778
1790341558053226500,17.0912265625,9.32541561126709,-0.181959331035614,0.9648633003234863
1790341558069710600,17.107710693359376,9.064447402954102,-0.06464344263076782,-0.4189853072166443
1790341558086167600,17.12416748046875,9.550470352172852,-0.1173158809542656,1.2449848651885986
1790341558102698000,17.140697998046875,9.983820915222168,-0.11013327538967133,0.19632454216480255
1790341558119190800,17.157190673828126,10.022128105163574,0.0694318488240242,0.730231523513794
1790341558135704000,17.1737041015625,10.134655952453613,0.08140286058187485,0.9648633003234863
1790341558152224500,17.190224609375,8.987833023071289,0.40222588181495667,0.8643068075180054
1790341558168712200,17.206712158203125,8.899248123168945,0.011971008032560349,-0.45010992884635925
1790341558185168000,17.22316796875,10.596736907958984,0.19393034279346466,1.1300631761550903
1790341558201661000,17.239660888671875,9.93354320526123,0.2513911724090576,-0.45250412821769714
1790341558218140400,17.256140380859375,9.607931137084961,0.5770025849342346,0.3878606855869293
1790341558234591700,17.272591796875,9.296685218811035,-0.2537853717803955,1.2665326595306396
1790341558251079700,17.28907958984375,10.793061256408691,0.871489405632019,-0.33997663855552673
1790341558267580000,17.305579833984375,9.78989028930664,-0.3734954595565796,0.7637503147125244
1790341558284076000,17.322075927734375,10.077195167541504,-0.009576806798577309,1.0223240852355957
1790341558300590600,17.338590576171875,9.576807022094727,0.12449848651885986,0.17477671802043915
1790341558317038800,17.355038818359375,9.277531623840332,0.3734954595565796,0.9792284965515137
1790341558333560300,17.371560302734373,8.829815864562988,0.3280056416988373,0.33997663855552673
1790341558350050000,17.388050048828124,9.05247688293457,-0.48602294921875,0.49559974670410156
1790341558366547200,17.404547119140624,10.72841739654541,0.3423708379268646,0.19871874153614044
1790341558383062300,17.421062255859376,9.825803756713867,-0.5267243981361389,1.0342950820922852
1790341558399546000,17.437546142578125,9.883264541625977,1.1061211824417114,-0.3423708379268646
1790341558416029200,17.454029296875,9.023746490478516,-1.1085153818130493,0.7350199222564697
1790341558432528600,17.470528564453126,11.279084205627441,0.2585737705230713,0.31603461503982544
1790341558449023700,17.487023681640625,9.979032516479492,0.07182604819536209,1.3335703611373901
1790341558465539000,17.5035390625,10.232817649841309,-0.6607996821403503,0.15083470940589905
1790341558481992000,17.519991943359376,10.333374977111816,0.3423708379268646,0.5889736413955688
1790341558498482700,17.536482666015626,9.490615844726562,-0.08619125932455063,0.5147533416748047
1790341558514997500,17.55299755859375,9.586383819580078,1.1468225717544556,0.2346317619085312
1790341558531457800,17.569457763671874,9.028534889221191,-0.09576806426048279,0.5961562395095825
1790341558547939800,17.58593994140625,10.168174743652344,-0.1412578970193863,-0.3256114423274994
1790341558564395500,17.6023955078125,11.580753326416016,1.01753568649292,1.5897499322891235
1790341558580880400,17.61888037109375,9.548076629638672,-0.181959331035614,0.2801215946674347
1790341558597404400,17.635404296875,9.493009567260742,0.5506663918495178,0.038307227194309235
1790341558613897500,17.6518974609375,9.186552047729492,-0.42377370595932007,0.7972691655158997
1790341558630411300,17.668411376953124,10.29746150970459,0.8427590131759644,-0.27054479718208313
1790341558646931700,17.684931640625,9.749189376831055,-0.44771572947502136,0.26815059781074524
1790341558663421000,17.7014208984375,10.864887237548828,0.3687070608139038,0.3663128614425659
1790341558679849700,17.717849609375,9.813833236694336,0.35673606395721436,0.47644615173339844
1790341558696347100,17.73434716796875,9.263166427612305,0.4165911078453064,0.33039984107017517
1790341558712829700,17.75082958984375,10.08198356628418,0.6967126727104187,0.950498104095459
1790341558729284600,17.76728466796875,9.39245319366455,-0.5937620401382446,-0.5003881454467773
1790341558745778700,17.78377880859375,10.924742698669434,0.27054479718208313,0.48602294921875
1790341558762247000,17.800246826171875,10.357316970825195,-0.17956513166427612,1.8267759084701538
1790341558778686700,17.816686767578126,9.172186851501465,0.09576806426048279,-0.6631938815116882
1790341558795198000,17.833197998046874,9.581595420837402,-0.2059013396501541,0.6967126727104187
1790341558811683000,17.84968310546875,10.402806282043457,0.05985504388809204,0.7661445140838623
1790341558828171300,17.866171142578125,9.792284965515137,0.17477671802043915,0.15801730751991272
1790341558844684300,17.882684326171876,9.02135181427002,-0.5722141861915588,0.8475474119186401
1790341558861179000,17.899178955078124,9.327810287475586,0.8307880163192749,0.19153612852096558
1790341558877697800,17.91569775390625,8.597578048706055,-0.6129156351089478,0.21547815203666687
1790341558894188000,17.93218798828125,9.545681953430176,0.5099649429321289,0.004788403399288654
1790341558910679000,17.948678955078126,9.512163162231445,-0.9720458984375,1.1276689767837524
1790341558927184000,17.965183837890624,10.924742698669434,-0.05027823522686958,-0.7110779285430908
1790341558943649000,17.98164892578125,10.450690269470215,-0.47405192255973816,1.072602391242981
1790341558960151300,17.9981513671875,10.125079154968262,0.12689268589019775,0.912190854549408
1790341558976604200,18.014604248046876,8.633491516113281,0.26575639843940735,-0.35434186458587646
1790341558993098200,18.03109814453125,9.0859956741333,-0.12928688526153564,0.5650315880775452
1790341559009540000,18.0475400390625,9.818621635437012,-0.2801215946674347,0.7086837291717529
1790341559026037000,18.064037109375,9.852140426635742,-0.33039984107017517,-0.38546648621559143
1790341559042553300,18.08055322265625,9.818621635437012,0.2513911724090576,1.2401964664459229
1790341559058980600,18.096980712890623,9.394847869873047,-0.06464344263076782,0.7230489253997803
1790341559075468000,18.113468017578125,9.378087997436523,0.09816227108240128,-1.41257905960083
1790341559091971300,18.129971435546874,10.38604736328125,-0.12210428714752197,0.9289502501487732
1790341559108438000,18.14643798828125,9.825803756713867,-0.3902548849582672,0.9361328482627869
1790341559124960300,18.162960205078125,9.437943458557129,-0.07900865375995636,-1.2114660739898682
1790341559141449500,18.179449462890624,10.11789608001709,0.031124621629714966,1.501164436340332
1790341559157919700,18.195919677734373,9.313444137573242,-0.35913026332855225,0.5051765441894531
1790341559174423300,18.21242333984375,9.591172218322754,-0.12689268589019775,-0.48602294921875
1790341559190919200,18.228919189453126,10.034099578857422,-0.5123591423034668,0.8667010068893433
1790341559207437300,18.245437255859375,10.33098030090332,-0.0454898327589035,0.6631938815116882
1790341559223923500,18.26192333984375,9.988609313964844,0.2753331959247589,0.4572925269603729
1790341559240422700,18.278422607421874,8.96389102935791,-0.4572925269603729,0.5339069962501526
1790341559256928800,18.2949287109375,10.093954086303711,-0.5817909836769104,0.8355764150619507
1790341559273427700,18.311427734375,10.781089782714844,0.5027823448181152,-0.36152446269989014
1790341559289950000,18.327949951171874,9.342175483703613,-1.2761094570159912,0.5123591423034668
1790341559306442200,18.344442138671877,10.187328338623047,0.17238251864910126,0.6823474764823914
1790341559322926300,18.36092626953125,8.777143478393555,-0.06224924325942993,0.22505496442317963
1790341559339411500,18.377411376953123,9.038111686706543,-0.9983820915222168,0.10534487664699554
1790341559355890000,18.393889892578127,10.994174003601074,-0.10773907601833344,0.8140285611152649
1790341559372334800,18.4103349609375,1.599326729774475,-1.7764976024627686,-0.016759412363171577
1790341559388841700,18.426841796875,9.071630477905273,0.42856210470199585,-0.2322375625371933
1790341559405286400,18.443286376953125,11.73398208618164,-2.2864625453948975,1.2952631711959839
1790341559421734000,18.45973388671875,11.508927345275879,-1.8914192914962769,-0.3519476354122162
1790341559438177500,18.476177490234374,10.553641319274902,-1.4053963422775269,0.9911994934082031
1790341559454621000,18.492620849609374,10.924742698669434,-1.4413094520568848,0.7493851184844971
1790341559471066400,18.50906640625,10.17296314239502,-0.608127236366272,1.170764684677124
1790341559487515000,18.525514892578126,10.369287490844727,-0.7876923680305481,0.8307880163192749
1790341559503991300,18.5419912109375,8.947132110595703,-0.6392518281936646,0.22505496442317963
1790341559520435700,18.558435791015626,8.537723541259766,-1.314416766166687,0.912190854549408
1790341559536901600,18.574901611328126,10.192116737365723,-0.6488286852836609,-0.8690952062606812
1790341559553377800,18.591377685546874,10.292673110961914,-0.5578489899635315,0.17956513166427612
1790341559569867000,18.607866943359376,9.591172218322754,-0.6416460275650024,0.8858546018600464
1790341559586353700,18.624353759765626,8.820239067077637,-0.3495534360408783,-0.090979665517807
1790341559602800400,18.64080029296875,9.66299819946289,-1.0438719987869263,1.1061211824417114
1790341559619286800,18.657286865234376,10.122684478759766,-1.5753847360610962,-0.31364041566848755
1790341559635760000,18.673760009765626,10.33098030090332,-0.5793967843055725,0.9552865028381348
1790341559652207400,18.690207275390627,8.908824920654297,-1.702277421951294,-0.16998831927776337
1790341559668679200,18.70667919921875,9.914389610290527,-0.9481038451194763,0.37828385829925537
1790341559685097500,18.723097412109375,10.070012092590332,-1.9153614044189453,-0.05985504388809204
1790341559701545000,18.739544921875,9.78989028930664,-0.9840168952941895,0.7829039692878723
1790341559718018300,18.756018310546875,10.47702693939209,-0.38067805767059326,0.7924807667732239
1790341559734468400,18.77246826171875,9.23682975769043,-1.3215993642807007,-0.033518824726343155
1790341559750941200,18.788941162109374,10.122684478759766,-0.3758896589279175,0.9026140570640564
1790341559767385000,18.805385009765626,8.844181060791016,-0.7374141216278076,0.33279404044151306
1790341559783868400,18.821868408203127,9.222464561462402,-0.6057330369949341,0.10055647045373917
1790341559800358400,18.8383583984375,9.342175483703613,-0.6871358752250671,0.6129156351089478
1790341559816846800,18.854846923828124,10.223240852355957,-1.2713210582733154,-0.5219359993934631
1790341559833342000,18.871342041015627,11.17852783203125,-0.5434837937355042,1.036689281463623
1790341559849835800,18.887835693359374,9.339780807495117,-0.9289502501487732,-0.1173158809542656
1790341559866351600,18.9043515625,9.481039047241211,-0.5482721924781799,0.14844051003456116
1790341559882837000,18.9208369140625,9.129091262817383,-1.3982137441635132,0.6943184733390808
1790341559899334700,18.937334716796876,11.013327598571777,-0.3519476354122162,-1.091755986213684
1790341559915843300,18.95384326171875,9.947908401489258,-1.0342950820922852,0.4908113479614258
1790341559932348200,18.97034814453125,8.990227699279785,-0.5363011956214905,-0.4668693244457245
1790341559948835600,18.986835693359374,9.337387084960938,-1.4173674583435059,0.37828385829925537
1790341559965324800,19.00332470703125,11.568782806396484,-1.3431471586227417,-0.181959331035614
1790341559981797000,19.019797119140627,11.353304862976074,-0.5051765441894531,0.5793967843055725
1790341559998247400,19.036247314453124,9.904812812805176,-0.8978256583213806,0.3280056416988373
1790341560014697000,19.052697021484374,8.990227699279785,-0.1843535304069519,0.1843535304069519
1790341560031167500,19.06916748046875,7.845798969268799,-0.6416460275650024,-0.15322890877723694
1790341560047608800,19.08560888671875,10.029311180114746,0.2777273952960968,0.19632454216480255
1790341560063968800,19.10196875,10.17296314239502,-1.1324573755264282,-0.2849099934101105
1790341560080445000,19.11844482421875,10.879252433776855,-1.5682021379470825,0.49320554733276367
1790341560096928000,19.134927978515623,11.118672370910645,-0.7589619159698486,0.13168109953403473
1790341560113376000,19.1513759765625,9.818621635437012,-1.139639973640442,0.009576806798577309
1790341560129914000,19.1679140625,9.9000244140625,-0.3902548849582672,0.5003881454467773
1790341560146406700,19.18440673828125,8.901641845703125,-1.5203180313110352,-0.3471592366695404
1790341560162911500,19.200911376953126,10.752359390258789,-0.6991068720817566,0.8523358106613159
1790341560179409000,19.217408935546874,9.160215377807617,-0.8451532125473022,0.023942016065120697
1790341560195926500,19.233926513671875,9.627084732055664,-0.5626373887062073,-0.1364694982767105
1790341560212418300,19.250418212890626,10.189722061157227,-0.912190854549408,-0.06224924325942993
1790341560228915500,19.26691552734375,9.856928825378418,-1.4317326545715332,0.21787235140800476
1790341560245420800,19.2834208984375,10.445901870727539,0.1364694982767105,0.33758243918418884
1790341560261918000,19.29991796875,9.107542991638184,-1.644816517829895,0.5339069962501526
1790341560278435800,19.316435791015625,10.256759643554688,-0.6919242739677429,-0.30885201692581177
1790341560294925300,19.33292529296875,9.334992408752441,-0.5722141861915588,-0.06703764945268631
1790341560311414500,19.34941455078125,9.251194953918457,-0.6416460275650024,0.5530605912208557
1790341560327943200,19.365943115234376,9.600749015808105,-0.5746083855628967,-0.7661445140838623
1790341560344438000,19.38243798828125,9.445125579833984,-0.9265560507774353,0.2944868206977844
1790341560360888600,19.398888671875,9.77791976928711,-0.5770025849342346,0.12210428714752197
1790341560377406500,19.415406494140626,9.66539192199707,-0.9576807022094727,0.004788403399288654
1790341560393895000,19.43189501953125,9.593565940856934,-1.173158884048462,-0.27054479718208313
1790341560410396000,19.44839599609375,10.587160110473633,-0.4141969084739685,0.1843535304069519
1790341560426892500,19.464892578125,10.426748275756836,-0.727837324142456,0.47165772318840027
1790341560443406800,19.48140673828125,10.029311180114746,-0.8738836050033569,-0.5602431893348694
1790341560459895000,19.49789501953125,9.876082420349121,-0.9409212470054626,0.7445967197418213
1790341560476390400,19.514390380859375,10.979808807373047,-0.29209262132644653,-0.3663128614425659
1790341560492893400,19.5308935546875,9.39245319366455,-1.7166426181793213,0.11252748221158981
1790341560509390800,19.547390869140624,9.141061782836914,-1.6112977266311646,-0.4692635238170624
1790341560525875500,19.56387548828125,9.627084732055664,-1.194706678390503,0.2825157940387726
1790341560542366700,19.58036669921875,9.655815124511719,-1.7932571172714233,0.1388636976480484
1790341560558831400,19.596831298828125,10.529699325561523,-1.2473790645599365,-0.40222588181495667
1790341560575361500,19.613361572265624,9.876082420349121,-0.8810662031173706,0.5817909836769104
1790341560591859200,19.629859130859376,9.260771751403809,-0.871489405632019,-1.1300631761550903
1790341560608373800,19.646373779296876,9.172186851501465,-1.0965443849563599,-0.4141969084739685
1790341560624909300,19.662909423828125,9.646238327026367,-0.9409212470054626,0.3016694188117981
1790341560641397000,19.67939697265625,10.359710693359375,-0.47644615173339844,-0.8068459630012512
1790341560657898800,19.695898681640625,9.821015357971191,-1.036689281463623,0.05506663769483566
1790341560674396000,19.71239599609375,9.679757118225098,-0.7398083209991455,-0.05985504388809204
1790341560690876200,19.728876220703125,10.120290756225586,-0.33997663855552673,-0.19153612852096558
1790341560707315500,19.7453154296875,9.679757118225098,-0.8427590131759644,-0.22026655077934265
1790341560723816700,19.761816650390625,9.655815124511719,-0.8331822156906128,-0.6153098344802856
1790341560740323800,19.77832373046875,9.765948295593262,-0.35913026332855225,0.1149216815829277
1790341560756826000,19.794826171875,9.32302188873291,-1.5418659448623657,-0.5123591423034668
1790341560773337900,19.811337890625,10.493785858154297,-0.5650315880775452,-0.37828385829925537
1790341560789828000,19.827828125,9.41400146484375,-1.256955862045288,0.5722141861915588
1790341560806317300,19.8443173828125,10.431536674499512,-0.9361328482627869,-1.0630255937576294
1790341560822844400,19.860844482421875,10.134655952453613,-0.6847416758537292,0.2298433631658554
1790341560839338200,19.877338134765626,9.41639518737793,-0.811634361743927,0.035913024097681046
1790341560855855000,19.893855224609375,10.259154319763184,-0.629675030708313,-0.33758243918418884
1790341560872340000,19.910340087890624,10.493785858154297,-0.29209262132644653,-0.5195417404174805
1790341560888803800,19.926803955078125,9.856928825378418,-0.667982280254364,0.6488286852836609
1790341560905302800,19.943302734375,10.192116737365723,-0.5315127968788147,-0.06703764945268631
1790341560921764400,19.959764404296877,9.964667320251465,-1.1516109704971313,-0.6799532771110535
1790341560938281000,19.976281005859374,9.995792388916016,-0.8164227604866028,0.4213795065879822
1790341560954772000,19.99277197265625,9.971850395202637,-1.237802267074585,-0.05746084079146385
1790341560971268400,20.009268310546876,9.75637149810791,-0.8858546018600464,-0.6153098344802856
1790341560987771100,20.025771240234373,10.101137161254883,-0.9672574996948242,0.5602431893348694
1790341561004267800,20.042267822265625,9.818621635437012,-0.912190854549408,-0.38546648621559143
1790341561020752600,20.058752685546875,9.433155059814453,-0.8236053586006165,-0.8140285611152649
1790341561037147600,20.075147705078123,8.882488250732422,-1.1013327836990356,0.2992752194404602
1790341561053638700,20.091638671875,9.701305389404297,-1.1516109704971313,-0.6248866319656372
1790341561070116900,20.108116943359374,10.271124839782715,-0.3902548849582672,-0.5626373887062073
1790341561086613200,20.12461328125,9.23682975769043,-1.580173134803772,0.0933738648891449
1790341561102101200,20.140101318359374,11.022904396057129,-0.3758896589279175,-0.3423708379268646
1790341561118523100,20.156523193359376,9.952696800231934,-0.7350199222564697,0.2513911724090576
1790341561134978600,20.172978515625,9.785101890563965,-1.0965443849563599,-0.5722141861915588
1790341561151478000,20.18947802734375,9.986215591430664,-0.33279404044151306,-0.14844051003456116
1790341561167938300,20.205938232421875,9.437943458557129,-1.2425906658172607,-0.4429273009300232
1790341561184452400,20.222452392578123,10.055646896362305,-0.4405331015586853,-0.35434186458587646
1790341561200938500,20.2389384765625,9.150638580322266,-1.5849615335464478,0.07182604819536209
1790341561217431000,20.25543115234375,10.6709566116333,-0.6703764796257019,-0.5889736413955688
1790341561233934600,20.2719345703125,9.981427192687988,-1.0845733880996704,0.6224924325942993
1790341561250397200,20.288397216796874,10.158597946166992,-0.7948749661445618,-0.3256114423274994
1790341561266909200,20.3049091796875,9.466673851013184,-1.2952631711959839,-0.21547815203666687
1790341561283400400,20.321400390625,9.955090522766113,-0.6631938815116882,0.12449848651885986
1790341561299886600,20.337886474609373,9.888052940368652,-0.524330198764801,-0.49799394607543945
1790341561316376300,20.354376220703124,9.318233489990234,-1.0630255937576294,-0.4668693244457245
1790341561332867300,20.370867431640626,10.690110206604004,-0.08140286058187485,0.44532153010368347
1790341561349379800,20.3873798828125,9.75637149810791,-0.7158663272857666,-0.5578489899635315
1790341561365831700,20.403831787109375,9.979032516479492,-0.08379705995321274,-0.5363011956214905
1790341561382260500,20.420260498046876,9.636661529541016,-0.17477671802043915,0.4165911078453064
1790341561398757600,20.436757568359376,9.799467086791992,-0.6751648783683777,-0.363918662071228
1790341561415229400,20.4532294921875,10.254365921020508,0.10055647045373917,-0.27054479718208313
1790341561431741400,20.469741455078125,9.44991397857666,-0.6727706789970398,-0.10534487664699554
1790341561448226000,20.48622607421875,10.074800491333008,-0.014365210197865963,-0.2082955539226532
1790341561464719600,20.5027197265625,9.696516990661621,-0.08858546614646912,-0.5578489899635315
1790341561481218000,20.519218017578126,9.682151794433594,-0.40222588181495667,-0.19871874153614044
1790341561497710800,20.5357109375,10.08198356628418,0.002394201699644327,-0.14365209639072418
1790341561514222000,20.55222216796875,9.47146224975586,-0.2825157940387726,-0.12928688526153564
1790341561530703000,20.568703125,9.730035781860352,-0.17477671802043915,-0.6200982332229614
1790341561547189500,20.585189453125,9.428366661071777,0.033518824726343155,0.11252748221158981
1790341561563713800,20.6017138671875,9.17697525024414,-0.4429273009300232,-0.6943184733390808
1790341561580174000,20.618174072265624,10.235212326049805,0.14604631066322327,-0.5650315880775452
1790341561596685800,20.634685791015624,9.720458984375,-0.5434837937355042,0.2106897532939911
1790341561613170700,20.651170654296877,11.111490249633789,0.11013327538967133,-0.05267243832349777
1790341561629564000,20.66756396484375,9.50498104095459,-0.4213795065879822,-0.18914192914962769
1790341561646028800,20.68402880859375,9.72285270690918,-0.19153612852096558,-0.12689268589019775
1790341561662487800,20.70048779296875,10.153809547424316,0.1173158809542656,-0.18914192914962769
1790341561679001300,20.71700146484375,9.062053680419922,-0.49559974670410156,-0.9672574996948242
1790341561695487000,20.733487060546874,10.098742485046387,0.19632454216480255,-0.8140285611152649
1790341561710951700,20.74895166015625,9.476250648498535,0.12449848651885986,-0.730231523513794
1790341561727449000,20.765448974609374,9.165003776550293,-0.5315127968788147,-0.5219359993934631
1790341561743906300,20.78190625,10.103530883789062,0.4884171485900879,0.24899697303771973
1790341561760386800,20.79838671875,9.301473617553711,-0.8164227604866028,-0.23702596127986908
1790341561776836000,20.814836181640626,10.611102104187012,0.3878606855869293,-0.4572925269603729
1790341561793318700,20.831318603515626,9.409213066101074,-0.751779317855835,-0.06224924325942993
1790341561809842000,20.847842041015625,9.907206535339355,-0.26815059781074524,0.08379705995321274
1790341561826334000,20.864333984375,10.036493301391602,1.0007762908935547,-0.5003881454467773
1790341561842810000,20.88081005859375,8.65743350982666,-0.6105214357376099,-0.6560112833976746
1790341561859322600,20.897322509765626,9.921571731567383,1.0773907899856567,0.2585737705230713
1790341561875781000,20.913781005859374,8.722076416015625,-0.4141969084739685,0.16519992053508759
1790341561892225500,20.9302255859375,9.80904483795166,0.7996633648872375,-1.4748282432556152
1790341561908669700,20.946669677734373,10.472238540649414,-1.7357962131500244,0.6057330369949341
1790341561925144600,20.96314453125,10.764330863952637,0.9840168952941895,-1.7764976024627686
1790341561941628200,20.979628173828125,8.808267593383789,0.42377370595932007,0.8331822156906128
1790341561958089200,20.996089111328125,8.525752067565918,-0.05746084079146385,-0.6105214357376099
1790341561974557400,21.012557373046874,10.496180534362793,2.765302896499634,-2.5067291259765625
1790341561990996700,21.028996826171873,9.404424667358398,-2.3918075561523438,1.1659762859344482
