time,seconds_elapsed,z,y,x
1790334774744669700,0.155669677734375,-0.2740483283996582,-0.2975893020629883,-0.035853683948516846
1790334774761086000,0.1720859375,0.1815810203552246,-0.2841815948486328,-0.0550694465637207
1790334774777535000,0.188534912109375,0.32601118087768555,-0.4330129623413086,-0.2815212607383728
1790334774793929500,0.204929443359375,0.2553095817565918,-0.8234014511108398,-0.9036763906478882
1790334774810404900,0.22140478515625,-0.5171055793762207,-0.7707228660583496,-0.9809852838516235
1790334774826875000,0.237875,-0.9150609970092773,-0.28284168243408203,-0.39496058225631714
1790334774843326500,0.254326416015625,-0.7560057640075684,0.6126246452331543,0.7036527395248413
1790334774859816200,0.270816162109375,-0.7833099365234375,0.5514655113220215,1.0463926792144775
1790334774876297200,0.287297119140625,-0.9646172523498535,0.2911372184753418,1.1409986019134521
1790334774892762600,0.3037626953125,-1.3732972145080566,-0.29200315475463867,0.6922299861907959
1790334774909231000,0.320231201171875,-1.6005191802978516,-0.6936192512512207,0.13166797161102295
1790334774925683200,0.33668310546875,-1.204268455505371,-0.8890476226806641,-0.6189756989479065
1790334774942176000,0.353176025390625,-0.26484203338623047,-0.5188083648681641,-0.7167176008224487
1790334774958651600,0.369651611328125,0.5393080711364746,-0.5015444755554199,-0.6341261863708496
1790334774975113700,0.38611376953125,-0.5422053337097168,-0.6566481590270996,0.15330082178115845
1790334774991598600,0.4025986328125,-1.1418261528015137,-1.0591802597045898,0.6896017789840698
1790334775008048000,0.419048095703125,0.7279987335205078,-1.608016014099121,-0.3768330216407776
1790334775024514300,0.435514404296875,2.36785888671875,-1.9511847496032715,-1.3123905658721924
1790334775041013000,0.452012939453125,3.393479347229004,-1.4375648498535156,-1.1897337436676025
1790334775057488400,0.46848828125,3.1165008544921875,-0.8363480567932129,-0.2789969742298126
1790334775073997300,0.484997314453125,2.910579204559326,-0.6927099227905273,0.18798279762268066
1790334775090449000,0.501448974609375,2.1735963821411133,-1.103044033050537,0.7408827543258667
1790334775106936300,0.517936279296875,1.1879258155822754,-1.2376036643981934,1.915008544921875
1790334775123418600,0.534418701171875,0.09366846084594727,-1.271498680114746,2.823532819747925
1790334775139905800,0.55090576171875,-0.37776803970336914,-1.3720030784606934,2.5363566875457764
1790334775156398800,0.56739892578125,0.4097914695739746,-1.52451753616333,0.8554762005805969
1790334775172849000,0.583848876953125,1.2882742881774902,-1.7500510215759277,-0.9164023399353027
1790334775189338400,0.60033837890625,1.9804224967956543,-1.5071487426757812,-1.50994074344635
1790334775205839000,0.616839111328125,1.7097516059875488,-0.8434457778930664,-0.546708881855011
1790334775222303700,0.6333037109375,0.7879524230957031,-0.801506519317627,0.13934126496315002
1790334775238786300,0.649786376953125,0.07755851745605469,-0.9332165718078613,0.24467064440250397
1790334775255242800,0.66624267578125,0.03756427764892578,-0.7614278793334961,-0.12700492143630981
1790334775271719200,0.68271923828125,0.20821571350097656,-0.7242445945739746,-0.9102847576141357
1790334775288193300,0.699193359375,0.8883285522460938,-0.65911865234375,-1.4336799383163452
1790334775304687900,0.71568798828125,1.508157730102539,-0.6821761131286621,-1.0630500316619873
1790334775321175600,0.732175537109375,1.7590703964233398,-0.5636076927185059,-0.5518791079521179
1790334775337631000,0.748630859375,1.7017145156860352,-0.5440998077392578,-0.8538033962249756
1790334775354105300,0.765105224609375,1.6369266510009766,-0.612922191619873,-0.7440693974494934
1790334775370581500,0.78158154296875,1.897726058959961,-0.36362457275390625,-0.31169092655181885
1790334775387046700,0.798046630859375,0.9595909118652344,-0.45313453674316406,-0.3950963616371155
1790334775403499300,0.814499267578125,2.239866256713867,-0.7996935844421387,-0.5741457343101501
1790334775419949000,0.830948974609375,2.2659730911254883,-0.5874447822570801,0.6666837930679321
1790334775436414000,0.8474140625,1.3643550872802734,-1.2206473350524902,1.330412745475769
1790334775452872000,0.863871826171875,0.8089332580566406,-0.5652694702148438,2.098541021347046
1790334775469324300,0.88032421875,0.7698545455932617,-0.7600827217102051,1.3510304689407349
1790334775485817000,0.896817138671875,-1.2971539497375488,-0.8150033950805664,-0.023313462734222412
1790334775502269000,0.91326904296875,-1.3185524940490723,-1.2750353813171387,-2.410285234451294
1790334775518713900,0.9297138671875,2.1837949752807617,-0.8095183372497559,-4.242179870605469
1790334775535187000,0.94618701171875,2.87155818939209,0.499483585357666,-3.7578179836273193
1790334775551661000,0.9626611328125,1.415008544921875,0.47702503204345703,-0.7630897760391235
1790334775568152800,0.97915283203125,-1.4471678733825684,-0.2945833206176758,1.3525817394256592
1790334775584603600,0.995603759765625,-1.092759609222412,-0.2879519462585449,2.597071647644043
1790334775601069300,1.0120693359375,-1.3925161361694336,-0.2993440628051758,0.4342963993549347
1790334775617550800,1.02855078125,-1.3146133422851562,-0.0897831916809082,-0.11939841508865356
1790334775634037800,1.045037841796875,-1.35011625289917,-0.047766685485839844,-0.536922812461853
1790334775650529800,1.06152978515625,-1.0316238403320312,0.4404020309448242,-0.8808159232139587
1790334775666978800,1.077978759765625,-0.7699642181396484,0.984105110168457,-0.0114554762840271
1790334775683465700,1.0944658203125,0.8110551834106445,0.7046375274658203,0.009600162506103516
1790334775699937000,1.11093701171875,1.577834129333496,1.1725401878356934,0.5690037608146667
1790334775716403200,1.1274033203125,1.2347593307495117,1.4741902351379395,0.5472031235694885
1790334775732870000,1.143869873046875,0.8446941375732422,1.5935492515563965,-0.09893721342086792
1790334775749316400,1.16031640625,0.1897602081298828,1.3324742317199707,-0.42215752601623535
1790334775765786000,1.1767861328125,0.8517932891845703,0.6133675575256348,0.46067866683006287
1790334775782263300,1.19326318359375,-0.5473370552062988,0.37763309478759766,1.1221402883529663
1790334775798746000,1.20974609375,1.8054533004760742,0.7294192314147949,0.6707870960235596
1790334775815253500,1.22625341796875,1.1104183197021484,1.4115700721740723,0.8717772960662842
1790334775831704600,1.24270458984375,0.6310539245605469,2.914462089538574,0.34495240449905396
1790334775848194800,1.25919482421875,-0.2286968231201172,1.7829651832580566,-1.6188851594924927
1790334775864680700,1.2756806640625,-3.70159912109375,0.7190728187561035,-1.4228039979934692
1790334775881154300,1.292154296875,-3.4569296836853027,0.7236790657043457,1.3286104202270508
1790334775897645300,1.308645263671875,-2.034067153930664,1.0272035598754883,1.5429868698120117
1790334775914098400,1.325098388671875,-1.2082929611206055,0.7340226173400879,1.8702250719070435
1790334775930546700,1.341546630859375,-1.6213297843933105,0.09143447875976562,0.7924492359161377
1790334775947052300,1.35805224609375,-1.6487298011779785,-0.3953242301940918,-0.5624337196350098
1790334775963516000,1.374515869140625,-1.2823328971862793,0.046473026275634766,0.27157825231552124
1790334775980029700,1.39102978515625,0.9833850860595703,0.5110864639282227,0.7969455718994141
1790334775996488400,1.407488525390625,0.43715953826904297,-0.7314074039459229,1.7766413688659668
1790334776012959000,1.423958984375,0.2859172821044922,-1.3907396793365479,2.1548213958740234
1790334776029453000,1.440453125,-0.27892208099365234,-2.0016467571258545,1.449717402458191
1790334776045934600,1.4569345703125,-0.8745737075805664,-1.9390079975128174,0.85398268699646
1790334776062419700,1.473419677734375,0.7194309234619141,-1.9562474489212036,-0.8206478357315063
1790334776078876000,1.4898759765625,0.21808147430419922,-2.3951337337493896,-1.1565048694610596
1790334776095352000,1.50635205078125,-0.9098844528198242,-2.7849550247192383,-1.5256798267364502
1790334776111864300,1.5228642578125,-1.767160415649414,-3.1788010597229004,-2.0073938369750977
1790334776128346600,1.5393466796875,-0.7700347900390625,-3.415531873703003,-0.8597187995910645
1790334776144817200,1.555817138671875,2.2812070846557617,-3.449002981185913,0.7128708362579346
1790334776161271600,1.572271484375,4.940402030944824,-4.5608978271484375,-1.9559522867202759
1790334776177744000,1.588743896484375,1.884185791015625,-4.94997501373291,-2.485316038131714
1790334776194222600,1.60522265625,-0.5664176940917969,-5.929238319396973,-2.3357961177825928
1790334776210681300,1.621681396484375,-0.133880615234375,-6.842776775360107,-2.3176753520965576
1790334776227177000,1.638177001953125,1.6894969940185547,-6.592161655426025,-0.07779228687286377
1790334776243632600,1.654632568359375,-0.8113498687744141,-4.240291595458984,1.6562341451644897
1790334776260083500,1.67108349609375,-1.6968293190002441,-1.2070465087890625,3.683387279510498
1790334776276571600,1.687571533203125,-7.924564361572266,-2.6273698806762695,0.8814332485198975
1790334776293047600,1.704047607421875,-0.4716024398803711,-2.018254518508911,-2.5284194946289062
1790334776309542700,1.720542724609375,2.1637048721313477,-1.341306209564209,-4.143028259277344
1790334776325995500,1.73699560546875,3.2643203735351562,-1.5748634338378906,-2.2653322219848633
1790334776342441700,1.753441650390625,2.675530433654785,-1.931856393814087,-2.3688063621520996
1790334776358959400,1.76995947265625,1.1152515411376953,-1.2158374786376953,-2.426626682281494
1790334776375439600,1.786439697265625,-3.365144729614258,-0.5043087005615234,-0.44343507289886475
1790334776391914000,1.8029140625,-3.0316147804260254,0.32505178451538086,0.410986065864563
1790334776408370200,1.8193701171875,0.12857723236083984,0.8659567832946777,0.3782620429992676
1790334776424861700,1.83586181640625,-0.46108055114746094,0.9972882270812988,1.0187269449234009
1790334776441337900,1.852337890625,-0.16383647918701172,1.0626945495605469,1.5618693828582764
1790334776457801700,1.8688017578125,1.8476715087890625,0.6550202369689941,1.0989558696746826
1790334776474289200,1.8852890625,2.149174690246582,0.013077020645141602,0.0367664098739624
1790334776490737000,1.90173681640625,0.4546356201171875,-0.02333378791809082,-0.6685911417007446
1790334776507204600,1.91820458984375,0.09920787811279297,0.2175295352935791,-0.7226938009262085
1790334776523672800,1.9346728515625,0.9167308807373047,0.001741647720336914,-0.32908886671066284
1790334776540152600,1.951152587890625,0.6713953018188477,-0.219651460647583,-0.7140415906906128
1790334776556642300,1.967642333984375,0.3850259780883789,-0.26845312118530273,-1.4504088163375854
1790334776573092600,1.984092529296875,0.4559669494628906,-0.36446142196655273,-0.9396173357963562
1790334776589556700,2.000556640625,0.6851806640625,-0.19170761108398438,0.02692665159702301
1790334776606039300,2.017039306640625,0.06408882141113281,-0.25254058837890625,0.17926768958568573
1790334776622525200,2.033525146484375,-0.7297019958496094,-0.6806405782699585,-0.21160481870174408
1790334776638984400,2.049984375,-0.8417997360229492,-0.678831934928894,-0.9082707166671753
1790334776655432400,2.066432373046875,-0.8394441604614258,-0.3391622304916382,-0.9700154662132263
1790334776671917800,2.082917724609375,-1.3866815567016602,-0.08263659477233887,-0.4821009635925293
1790334776688385300,2.09938525390625,-1.6823291778564453,-0.14823877811431885,0.18846696615219116
1790334776704862200,2.1158623046875,-1.5366649627685547,-0.398034930229187,0.8305913805961609
1790334776721342000,2.132342041015625,-1.8626179695129395,-0.6324625015258789,0.9641580581665039
1790334776737789700,2.148789794921875,-2.010920524597168,-0.9308668971061707,0.43281519412994385
1790334776754257400,2.16525732421875,-2.564955711364746,-1.1408461332321167,0.07355335354804993
1790334776770751500,2.18175146484375,-3.1979002952575684,-1.2393581867218018,-0.2122536450624466
1790334776787228700,2.198228759765625,-4.002886772155762,-1.177379846572876,-0.31974273920059204
1790334776803753500,2.21475341796875,-3.5161147117614746,-0.9586082696914673,0.24213232100009918
1790334776820208000,2.2312080078125,-2.072472095489502,-0.6171630620956421,0.3407749533653259
1790334776836678100,2.24767822265625,-1.7774200439453125,-0.4084433913230896,-0.12872499227523804
1790334776853184500,2.2641845703125,-2.0718584060668945,-0.24547436833381653,-0.2152317762374878
1790334776869666600,2.28066650390625,-2.4722256660461426,-0.14617705345153809,-0.4074168801307678
1790334776886132000,2.297132080078125,-1.4223966598510742,-0.38277387619018555,-1.1872098445892334
1790334776902580000,2.313580078125,0.2287921905517578,-0.40670883655548096,-1.1206965446472168
1790334776919045400,2.33004541015625,2.064321517944336,-0.5391858816146851,-0.22018098831176758
1790334776935534000,2.3465341796875,3.435213088989258,-0.38081610202789307,0.16422736644744873
1790334776951988000,2.362988037109375,2.501021385192871,-0.22874093055725098,-0.2612799406051636
1790334776968473300,2.379473388671875,2.4025087356567383,-0.40016043186187744,-0.5105510950088501
1790334776984924700,2.395924560546875,1.2999286651611328,-0.03279387950897217,-0.02213573455810547
1790334777001371100,2.41237109375,1.9217872619628906,0.9920011758804321,1.4802602529525757
1790334777017843500,2.428843505859375,3.575833320617676,0.992711067199707,0.4054156541824341
1790334777034288600,2.44528857421875,3.31256103515625,0.2527207136154175,-1.0309107303619385
1790334777050780400,2.461780517578125,1.3438301086425781,-0.2639806270599365,-2.067783832550049
1790334777067198700,2.47819873046875,-0.4369659423828125,0.15800690650939941,-2.409824848175049
1790334777083665000,2.494664794921875,-2.0473170280456543,1.063651442527771,-2.1695749759674072
1790334777100142600,2.511142578125,-2.9623494148254395,1.5449750423431396,-1.0753586292266846
1790334777116617700,2.52761767578125,-1.369908332824707,1.4473727941513062,-0.38183438777923584
1790334777133037000,2.544037109375,-0.19047832489013672,1.0004974603652954,-0.8769685626029968
1790334777149375500,2.56037548828125,1.282607078552246,-0.04448270797729492,-0.9380414485931396
1790334777165725200,2.57672509765625,0.0636138916015625,1.4067946672439575,0.43240487575531006
1790334777182203600,2.59320361328125,-0.8252735137939453,0.7064647674560547,-0.5179177522659302
1790334777198673400,2.60967333984375,-0.6981678009033203,-0.5270944833755493,-0.9632343649864197
1790334777215153700,2.626153564453125,-0.5477085113525391,-0.6156597137451172,0.7736519575119019
1790334777231638000,2.642637939453125,1.370595932006836,-0.6175873279571533,1.5579190254211426
1790334777248115000,2.659114990234375,1.9245147705078125,-0.6504567861557007,1.5504941940307617
1790334777264584400,2.67558447265625,2.3958921432495117,-1.0617802143096924,0.9121359586715698
1790334777281048000,2.692048095703125,2.5083847045898438,-1.788053035736084,0.28205323219299316
1790334777297547500,2.708547607421875,0.7750244140625,-2.873941659927368,-0.2202911376953125
1790334777314033400,2.725033447265625,0.1850118637084961,-2.8381922245025635,-0.15140175819396973
1790334777330505700,2.741505615234375,0.6303262710571289,-1.8767772912979126,-0.41702330112457275
1790334777346980900,2.75798095703125,0.535609245300293,-1.6310977935791016,-0.42507994174957275
1790334777363437600,2.7744375,0.6856002807617188,-1.564315915107727,0.4218153953552246
1790334777379888000,2.79088818359375,0.3163728713989258,-1.384657382965088,0.3244115114212036
1790334777396337700,2.807337646484375,0.6059637069702148,-1.2960485219955444,0.07976460456848145
1790334777412826000,2.823826171875,1.2801036834716797,-1.6704977750778198,-0.518294095993042
1790334777429290000,2.8402900390625,1.2180156707763672,-1.7098523378372192,-0.7986942529678345
1790334777445755100,2.856755126953125,1.0032215118408203,-1.4678852558135986,-0.2945793867111206
1790334777462197500,2.873197509765625,1.1709356307983398,-1.242348551750183,0.45410335063934326
1790334777478640000,2.88964013671875,0.8714656829833984,-1.229132056236267,0.21373367309570312
1790334777495113000,2.906113037109375,0.4275178909301758,-1.5093032121658325,-0.2588374614715576
1790334777511567400,2.9225673828125,0.18147945404052734,-1.6964280605316162,-0.641821026802063
1790334777528022500,2.9390224609375,0.6771364212036133,-1.6936736106872559,-0.42378342151641846
1790334777544486700,2.955486572265625,1.7855463027954102,-1.5009883642196655,-0.08289587497711182
1790334777560941300,2.97194140625,2.1901416778564453,-1.5822365283966064,0.315187931060791
1790334777577414400,2.988414306640625,1.1301345825195312,-1.4641544818878174,0.47879302501678467
1790334777593886200,3.00488623046875,0.5033769607543945,-1.258211612701416,0.3453655242919922
1790334777610335700,3.021335693359375,-0.10574150085449219,-1.2005705833435059,0.190047025680542
1790334777626779100,3.037779052734375,0.5750751495361328,-1.0277516841888428,0.03831326961517334
1790334777643239200,3.0542392578125,0.3386354446411133,-1.0290031433105469,0.2097097635269165
1790334777659720200,3.07072021484375,0.44318389892578125,-0.38583552837371826,0.5809730291366577
1790334777676182800,3.087182861328125,-0.22919940948486328,-1.3702847957611084,-0.22876596450805664
1790334777692641000,3.10364111328125,-0.9378738403320312,-1.1112594604492188,-0.026519775390625
1790334777709114000,3.120114013671875,-1.521108627319336,-0.661019504070282,-0.05487024784088135
1790334777725587700,3.136587646484375,-1.503641128540039,-0.34152930974960327,-0.6976794600486755
1790334777742059000,3.15305908203125,-1.5459575653076172,-0.1534276008605957,-0.6283912658691406
1790334777758556400,3.169556396484375,-1.5564050674438477,-0.31835633516311646,-0.21719062328338623
1790334777775019000,3.18601904296875,-1.2926034927368164,-0.32410991191864014,-0.010214090347290039
1790334777791517000,3.202516845703125,-0.968989372253418,-0.2704213857650757,0.34041881561279297
1790334777808055800,3.219055908203125,-0.5724878311157227,-0.44259679317474365,0.48683714866638184
1790334777824510200,3.23551025390625,0.664799690246582,0.3051632046699524,1.213599681854248
1790334777840958200,3.251958251953125,0.8027496337890625,-0.7702199220657349,0.9983017444610596
1790334777857408500,3.268408447265625,0.9760046005249023,-1.4907938241958618,0.7288281917572021
1790334777873882600,3.284882568359375,0.64874267578125,-1.5886452198028564,1.0277626514434814
1790334777890336800,3.301336669921875,0.6685600280761719,-1.3634469509124756,0.9830100536346436
1790334777906792400,3.31779248046875,0.1295909881591797,-1.0188113451004028,0.8440613746643066
1790334777923237600,3.334237548828125,0.04793739318847656,-1.0783498287200928,0.7661070823669434
1790334777939696000,3.350696044921875,1.3523216247558594,-1.4180711507797241,-0.21785974502563477
1790334777956166100,3.367166259765625,0.5195512771606445,-1.2742633819580078,-0.20848917961120605
1790334777972639700,3.3836396484375,-0.05751991271972656,-0.931126058101654,-0.18913984298706055
1790334777989089500,3.400089599609375,-0.5223913192749023,-0.7886261940002441,-0.12328004837036133
1790334778005537500,3.41653759765625,-0.8820934295654297,-0.6896376013755798,-0.05823802947998047
1790334778021996500,3.43299658203125,-1.0685930252075195,-0.5086935758590698,-0.17809319496154785
1790334778038435000,3.44943505859375,-0.9522476196289062,-0.3926846385002136,-0.20291268825531006
1790334778054771000,3.46577099609375,-0.7624855041503906,-0.2902650833129883,-0.1283053159713745
1790334778071237400,3.4822373046875,-0.25665855407714844,-0.22371773421764374,-0.33252906799316406
1790334778087704600,3.49870458984375,-0.6535892486572266,-0.17011918127536774,-0.47434091567993164
1790334778104153600,3.515153564453125,-1.2941780090332031,-0.02464635670185089,-0.7339227199554443
1790334778120640500,3.531640625,-2.3838772773742676,0.3208961486816406,-1.3357129096984863
1790334778137096700,3.5480966796875,-2.386397361755371,0.6079304218292236,-0.9751423597335815
1790334778153560600,3.564560546875,-1.4106006622314453,0.7991763353347778,-0.967427134513855
1790334778170026000,3.58102587890625,-0.6587858200073242,0.8036919832229614,-0.8098068237304688
1790334778186489300,3.5974892578125,-0.46660327911376953,-0.13541722297668457,0.2500746250152588
1790334778202966800,3.613966796875,0.27730846405029297,-0.15179121494293213,-0.025875091552734375
1790334778219415300,3.630415283203125,0.15325260162353516,0.8665685057640076,-0.1954580545425415
1790334778235883800,3.6468837890625,-0.631901741027832,1.2625013589859009,-0.05590975284576416
1790334778252341200,3.66334130859375,-0.4794435501098633,0.07440125942230225,1.5783947706222534
1790334778268795600,3.679795654296875,-0.2580842971801758,-0.8923287391662598,1.9655429124832153
1790334778285286100,3.6962861328125,0.727849006652832,-1.0734848976135254,0.17836058139801025
1790334778301736400,3.712736328125,1.3509159088134766,-0.7005497217178345,-0.2924063205718994
1790334778318206700,3.729206787109375,1.2992238998413086,-0.3236501216888428,0.05452758073806763
1790334778334707500,3.74570751953125,1.707371711730957,0.6552788019180298,0.26030486822128296
1790334778351157500,3.762157470703125,1.247894287109375,1.1354548931121826,0.6097347736358643
1790334778367600000,3.77860009765625,1.1080493927001953,0.4241112470626831,0.48598983883857727
1790334778384043300,3.795043212890625,1.1665363311767578,-0.2646455764770508,0.3914373815059662
1790334778400530200,3.8115302734375,2.1948318481445312,-0.7644791603088379,-0.07193052768707275
1790334778416995000,3.8279951171875,1.5151338577270508,-0.8731696605682373,-0.21888065338134766
1790334778433455000,3.844455078125,0.32016944885253906,-0.08685731887817383,-0.12180318683385849
1790334778449900500,3.860900634765625,0.2222604751586914,0.20371389389038086,0.6636595726013184
1790334778466342100,3.877342041015625,1.154587745666504,-0.24965953826904297,0.5063683986663818
1790334778482812700,3.893812744140625,1.5586042404174805,-0.5379786491394043,0.41710853576660156
1790334778499277000,3.910277099609375,0.3917274475097656,-0.4902937412261963,0.8581718802452087
1790334778515719200,3.92671923828125,-0.7841367721557617,-0.17627882957458496,1.2660295963287354
1790334778532215600,3.943215576171875,-1.3758440017700195,-0.21312189102172852,1.279170274734497
1790334778548693500,3.959693603515625,-1.510087013244629,-0.1657106876373291,1.0824953317642212
1790334778565168400,3.97616845703125,-1.5613856315612793,-0.29810523986816406,0.5201759338378906
1790334778581644500,3.99264453125,-1.508927345275879,-0.631601095199585,0.4988096356391907
1790334778598088700,4.009088623046875,-1.5474305152893066,-0.6151938438415527,0.6963923573493958
1790334778614568700,4.025568603515625,-1.74456787109375,-0.34046435356140137,0.9046765565872192
1790334778631035000,4.042034912109375,-0.8382368087768555,-0.07754063606262207,0.47796908020973206
1790334778647490800,4.05849072265625,0.2187671661376953,-0.6464240550994873,-0.08124202489852905
1790334778663935200,4.074935302734375,0.7363367080688477,-0.43775439262390137,-0.3275226354598999
1790334778680400100,4.091400146484375,-18.693193435668945,-4.985269546508789,-1.8870048522949219
1790334778696868400,4.107868408203125,-6.94398832321167,-3.754337787628174,0.08174341917037964
1790334778713341200,4.124341064453125,-5.658847808837891,-14.112351417541504,-1.5309875011444092
1790334778729788200,4.1407880859375,6.279387474060059,-6.368407249450684,-4.908673286437988
1790334778746255400,4.15725537109375,0.9952354431152344,-0.44840335845947266,-7.452363967895508
1790334778762631200,4.173631103515625,4.830092430114746,3.260624408721924,-2.0227158069610596
1790334778779074600,4.190074462890625,-3.667543888092041,-2.571770429611206,4.665766716003418
1790334778795533800,4.206533935546875,2.3510208129882812,-2.554187059402466,3.9918227195739746
1790334778811976700,4.222976806640625,1.3800115585327148,-2.445850372314453,1.3662595748901367
1790334778828423200,4.239423095703125,-4.692004680633545,-0.27483487129211426,0.9776906967163086
1790334778844866300,4.2558662109375,-1.3233375549316406,0.7352056503295898,-0.4325377941131592
1790334778861330000,4.272329833984375,1.5611581802368164,0.09753632545471191,-0.4367392063140869
1790334778877772000,4.28877197265625,-1.2784996032714844,-1.5562479496002197,-0.4146130084991455
1790334778894213600,4.305213623046875,-2.910698413848877,-2.2100212574005127,1.1150767803192139
1790334778910656800,4.32165673828125,0.20689010620117188,-1.0458974838256836,1.0134954452514648
1790334778927110100,4.338110107421875,0.6008052825927734,-0.6992545127868652,-0.9221312999725342
1790334778943555000,4.35455517578125,0.7449636459350586,-1.3348238468170166,1.039212942123413
1790334778960002600,4.37100244140625,0.1780834197998047,-2.2677600383758545,0.5178713798522949
1790334778976450300,4.3874501953125,1.1502532958984375,-1.6391465663909912,1.2107691764831543
1790334778992905000,4.403905029296875,-0.557072639465332,-0.9386019706726074,1.3291354179382324
1790334779009372200,4.4203720703125,-1.1599006652832031,-1.0768113136291504,0.6287574768066406
1790334779025821400,4.436821533203125,-2.0449719429016113,0.6970664262771606,0.6586704850196838
1790334779042279000,4.45327880859375,-0.5911369323730469,1.8410062789916992,-0.42063164710998535
1790334779058722800,4.469722900390625,0.5063343048095703,0.8115513920783997,-0.002213418483734131
1790334779075105300,4.486105224609375,1.3333921432495117,1.1643309593200684,-1.1207525730133057
1790334779091549400,4.502549560546875,3.3206138610839844,1.3222284317016602,0.7909430265426636
1790334779107962400,4.51896240234375,0.891937255859375,-0.4918789863586426,-0.19784700870513916
1790334779124407800,4.53540771484375,-0.10260581970214844,0.27235883474349976,0.4460581839084625
1790334779140850700,4.5518505859375,-0.04778289794921875,0.27957940101623535,0.03931039571762085
1790334779157291800,4.568291748046875,-1.092031478881836,0.10116243362426758,-1.0404434204101562
1790334779173741600,4.584741455078125,-0.7701606750488281,-0.13310503959655762,-1.1664851903915405
1790334779190181600,4.601181640625,-0.16532135009765625,-0.7041260004043579,-0.38226693868637085
1790334779206621400,4.617621337890625,-0.09622383117675781,-0.9100879430770874,-0.10314726829528809
1790334779223060200,4.634060302734375,0.1286764144897461,-1.1208643913269043,-0.08407354354858398
1790334779239499800,4.650499755859375,0.7295598983764648,-0.4278268814086914,1.1890349388122559
1790334779255956000,4.6669560546875,-1.9713597297668457,-1.0597196817398071,0.7974292039871216
1790334779272394200,4.683394287109375,-3.1674652099609375,-0.42493414878845215,0.47484123706817627
1790334779288845000,4.699844970703125,-0.6949138641357422,0.07864952087402344,0.3951685428619385
1790334779305286100,4.7162861328125,-0.5302734375,0.3595736026763916,-0.9596613645553589
1790334779321726000,4.732725830078125,1.901747703552246,0.8483504056930542,-0.133070707321167
1790334779338166000,4.749166015625,1.7815799713134766,-0.09950709342956543,-0.7544039487838745
1790334779354639600,4.7656396484375,1.2196168899536133,1.2855561971664429,-0.7517639398574829
1790334779371083000,4.7820830078125,0.187774658203125,2.7276275157928467,0.19780826568603516
1790334779387527000,4.79852685546875,-0.7523040771484375,0.4983069896697998,0.9824419617652893
1790334779403968000,4.814968017578125,-1.8867173194885254,-1.249908208847046,-0.6440311670303345
1790334779420421600,4.831421630859375,-1.9184980392456055,-1.0997438430786133,-2.041987895965576
1790334779436864500,4.847864501953125,-0.44799232482910156,0.2726278305053711,-1.196220874786377
1790334779453309400,4.864309326171875,-2.534600257873535,-0.748995304107666,1.345470905303955
1790334779469751800,4.880751708984375,0.4158468246459961,-1.5899748802185059,1.6296792030334473
1790334779486194400,4.8971943359375,1.4058952331542969,-1.735403060913086,1.1634814739227295
1790334779502646000,4.91364599609375,1.8669891357421875,-1.8471534252166748,0.34132981300354004
1790334779519086000,4.930086181640625,2.6654863357543945,-3.4683971405029297,0.11445999145507812
1790334779535538400,4.946538330078125,-0.3970775604248047,-2.6292755603790283,0.05059194564819336
1790334779551979000,4.96297900390625,-4.361227512359619,0.7163941860198975,0.23372840881347656
1790334779568421400,4.97942138671875,-2.1206107139587402,1.597301721572876,-0.1707611083984375
1790334779584863500,4.995863525390625,-3.0325632095336914,1.485032558441162,1.9021742343902588
1790334779601328600,5.01232861328125,-3.0521321296691895,1.5390281677246094,1.974329948425293
1790334779617773800,5.02877392578125,4.5670881271362305,-0.21798944473266602,0.084716796875
1790334779634219000,5.045218994140625,7.921733856201172,-2.0309503078460693,-3.43041729927063
1790334779650605000,5.06160498046875,2.927138328552246,0.7035384178161621,-2.762969970703125
1790334779667073300,5.0780732421875,19.038089752197266,2.553637742996216,13.60300350189209
1790334779683444700,5.09444482421875,-7.080859661102295,0.868471622467041,-1.3975964784622192
1790334779699889200,5.11088916015625,10.693231582641602,1.2548575401306152,5.881473064422607
1790334779716333600,5.12733349609375,-3.3196001052856445,2.1028504371643066,2.6514081954956055
1790334779732870700,5.14387060546875,-2.2349319458007812,2.6962833404541016,3.5810999870300293
1790334779749219600,5.160219482421875,-7.191422462463379,-2.4334893226623535,-3.5601418018341064
1790334779765661400,5.176661376953125,-9.326723098754883,-4.4014363288879395,1.2534680366516113
1790334779782123300,5.193123291015625,-10.665778160095215,-3.274876594543457,-2.8164758682250977
1790334779798551600,5.209551513671875,-7.520342826843262,-0.3767833709716797,0.9518994688987732
1790334779815000000,5.226,-1.414313793182373,-0.6619248390197754,-1.1474850177764893
1790334779831446000,5.242446044921875,-3.700072765350342,0.5082025527954102,-0.2530696392059326
1790334779847908900,5.258908935546875,-3.8382043838500977,1.1393260955810547,4.226238250732422
1790334779864362200,5.2753623046875,-0.6772685050964355,0.8235836029052734,2.111588954925537
1790334779880807000,5.291806884765625,0.7769184112548828,2.92048978805542,3.1686041355133057
1790334779897252900,5.3082529296875,1.3563017845153809,4.216877460479736,3.6018564701080322
1790334779913717800,5.3247177734375,2.5007901191711426,2.482400417327881,1.651672124862671
1790334779930160000,5.34116015625,-1.147350788116455,-0.7170333862304688,-5.586989879608154
1790334779946602200,5.357602294921875,0.8653507232666016,0.41382789611816406,0.8803611993789673
1790334779963086600,5.374086669921875,-2.5878703594207764,-6.721963882446289,-3.5810465812683105
1790334779979526400,5.3905263671875,12.444881439208984,-5.032421112060547,3.293508291244507
1790334779995968000,5.406968017578125,-29.270572662353516,-23.557165145874023,-9.792011260986328
1790334780012373000,5.423373046875,-10.408405303955078,-1.486459732055664,-1.763195514678955
1790334780028819700,5.43981982421875,0.8754384517669678,-0.013939857482910156,-0.907203197479248
1790334780045265400,5.456265380859375,-0.09641671180725098,-0.45610523223876953,-2.6139206886291504
1790334780061670700,5.472670654296875,-0.6224243640899658,0.48103809356689453,-0.48554903268814087
1790334780078116600,5.48911669921875,0.7274127006530762,0.46724700927734375,-0.5210234522819519
1790334780094464500,5.505464599609375,-0.8717823028564453,-1.4411907196044922,0.3418348431587219
1790334780110873900,5.521873779296875,-0.9270551204681396,-2.249823570251465,1.8727983236312866
1790334780127352600,5.5383525390625,0.41214799880981445,-1.2506027221679688,1.0066592693328857
1790334780143851500,5.5548515625,2.6162872314453125,-0.6119842529296875,-1.0966856479644775
1790334780160323600,5.571323486328125,-4.036747932434082,-0.3190793991088867,0.39140796661376953
1790334780176735200,5.5877353515625,-3.174099922180176,3.762600898742676,-4.138012886047363
1790334780193113900,5.60411376953125,-1.4760193824768066,-0.1450023651123047,1.9770538806915283
1790334780209567000,5.62056689453125,3.6225528717041016,-2.9203405380249023,0.7927281260490417
1790334780226012400,5.637012451171875,2.292572259902954,-2.678852081298828,1.126699447631836
1790334780242454500,5.65345458984375,-0.6818075180053711,-0.5225238800048828,1.9088537693023682
1790334780258896600,5.669896728515625,-0.641221284866333,-1.3989601135253906,1.2782303094863892
1790334780275364900,5.68636474609375,0.2931060791015625,-0.7399225234985352,0.4500146508216858
1790334780291842800,5.7028427734375,1.7649943828582764,-0.7855262756347656,0.3839257061481476
1790334780308332500,5.71933251953125,-2.5320825576782227,-1.2102279663085938,0.11982989311218262
1790334780324824300,5.73582421875,1.5474328994750977,0.051636695861816406,1.6352171897888184
1790334780341276700,5.752276611328125,1.0654354095458984,-0.6102304458618164,-0.523020327091217
1790334780357737000,5.768737060546875,-2.5591206550598145,2.5205564498901367,0.061276018619537354
1790334780374185000,5.78518505859375,-2.602423667907715,1.0930795669555664,-0.22556430101394653
1790334780390634000,5.801634033203125,2.2647454738616943,-0.3500194549560547,-1.4143977165222168
1790334780407110400,5.8181103515625,-0.6878752708435059,-0.22631549835205078,0.1266953945159912
1790334780423557600,5.8345576171875,-0.9234461784362793,-0.013993263244628906,-1.4144184589385986
1790334780440016100,5.85101611328125,1.3007967472076416,1.8159732818603516,-1.0303394794464111
1790334780456467200,5.86746728515625,-0.0009253025054931641,1.3536977767944336,-0.8875172138214111
1790334780472914400,5.88391455078125,1.0269393920898438,1.5637526512145996,1.5518550872802734
1790334780489371400,5.900371337890625,2.8434319496154785,1.4895787239074707,-0.21978759765625
1790334780505814500,5.916814453125,1.150561809539795,1.008190631866455,-2.868022918701172
1790334780522287600,5.93328759765625,-1.5265944004058838,-2.703253746032715,1.3657931089401245
1790334780538732000,5.94973193359375,-2.546273708343506,-2.030972480773926,0.6435973644256592
1790334780555176000,5.966176025390625,-3.3060128688812256,-2.6366262435913086,6.550664901733398
1790334780571632600,5.982632568359375,0.20984888076782227,-0.3430757522583008,1.01267409324646
1790334780588081400,5.999081298828125,2.486018657684326,-1.4496440887451172,-0.36368584632873535
1790334780604533200,6.015533203125,-2.946068048477173,-0.5092067718505859,0.07588708400726318
1790334780620994000,6.031994140625,-1.8178346157073975,0.239471435546875,-0.36156272888183594
1790334780637433900,6.048433837890625,1.2703404426574707,-4.144889831542969,-1.1239159107208252
1790334780653900000,6.064900146484375,-0.41289258003234863,-1.2002267837524414,-3.6509103775024414
1790334780670342400,6.08134228515625,4.185214996337891,0.8351130485534668,-2.4518508911132812
1790334780686785800,6.097785888671875,11.654026985168457,1.9138970375061035,-4.895188331604004
1790334780703235800,6.11423583984375,1.185577154159546,1.1417207717895508,-7.3790602684021
1790334780719682800,6.130682861328125,0.39995884895324707,-0.5946388244628906,-0.9593511819839478
1790334780736128800,6.147128662109375,0.6394200325012207,2.485597610473633,-2.488373279571533
1790334780752575000,6.163574951171875,-1.329188585281372,0.2668266296386719,0.029573678970336914
1790334780769038600,6.18003857421875,-0.23894381523132324,0.8935580253601074,0.6563156843185425
1790334780785485800,6.19648583984375,0.34187936782836914,-1.2086000442504883,-0.7589044570922852
1790334780801932300,6.212932373046875,-1.407747745513916,-0.1432037353515625,0.6182478666305542
1790334780818377500,6.22937744140625,0.6894328594207764,-1.055985450744629,0.6457618474960327
1790334780834685700,6.245685791015625,0.08697152137756348,0.04580879211425781,-0.5041488409042358
1790334780851126000,6.2621259765625,-0.910667896270752,-0.6973962783813477,-0.150054931640625
1790334780867566000,6.278566162109375,0.03536176681518555,-1.6858558654785156,1.117938756942749
1790334780884007200,6.295007080078125,1.6126174926757812,-0.6137599945068359,-0.5744807720184326
1790334780900473600,6.3114736328125,-2.2787020206451416,-0.04266166687011719,0.7374091744422913
1790334780916918300,6.327918212890625,-0.6247389316558838,1.598404884338379,1.1390982866287231
1790334780933368800,6.344368896484375,0.793220043182373,-1.666717529296875,-0.43797922134399414
1790334780949831000,6.360830810546875,-2.223834276199341,0.30980777740478516,0.3770357370376587
1790334780966301700,6.3773017578125,1.0481252670288086,0.7970809936523438,-0.6593204736709595
1790334780982780000,6.39377978515625,-0.613696813583374,0.20855712890625,-0.3154776096343994
1790334780999239000,6.410239013671875,-0.35675811767578125,-0.6898088455200195,-0.40627503395080566
1790334781015731200,6.426731201171875,0.2331993579864502,-0.6897544860839844,-0.20863652229309082
1790334781032204300,6.443204345703125,-0.058022499084472656,-0.9947614669799805,0.31490254402160645
1790334781048707800,6.459707763671875,-1.6866419315338135,0.5596685409545898,1.6830110549926758
1790334781065226200,6.476226318359375,1.4311766624450684,-0.5323362350463867,-0.11312532424926758
1790334781081684000,6.49268408203125,-0.27711915969848633,-0.12973785400390625,1.4970682859420776
1790334781098170600,6.509170654296875,-0.44528818130493164,-0.48439979553222656,0.018628358840942383
1790334781114631000,6.525630859375,3.1025190353393555,-0.9211769104003906,-1.3089760541915894
1790334781131134200,6.54213427734375,-0.7170126438140869,-1.1220741271972656,-0.5094242095947266
1790334781147617500,6.558617431640625,-0.40015411376953125,0.7908010482788086,0.37032604217529297
1790334781164077800,6.575077880859375,0.9173250198364258,-1.291935920715332,-0.4786626100540161
1790334781180551200,6.59155126953125,-1.1682593822479248,0.7146034240722656,0.6266356706619263
1790334781197021000,6.60802099609375,0.4704761505126953,0.29569339752197266,1.3456486463546753
1790334781213468200,6.62446826171875,1.068260908126831,-0.3225440979003906,-0.1375441551208496
1790334781229923300,6.64092333984375,-0.5242962837219238,-0.0485382080078125,1.077950119972229
1790334781246367000,6.657366943359375,0.7843294143676758,-0.6704177856445312,0.015614748001098633
1790334781262834700,6.673834716796875,1.2065629959106445,0.6312217712402344,-1.0386286973953247
1790334781279277300,6.69027734375,-1.3115122318267822,1.368238925933838,0.15200376510620117
1790334781295719000,6.706718994140625,-0.5975661277770996,-0.33722972869873047,0.6886305212974548
1790334781312175000,6.723175048828125,-2.1749978065490723,-1.356985092163086,0.4518725872039795
1790334781328618500,6.739618408203125,13.175716400146484,-0.01551055908203125,2.348301649093628
1790334781345074400,6.756074462890625,3.504328727722168,0.36902952194213867,-0.38855981826782227
1790334781361518000,6.77251806640625,-4.273943901062012,0.5461864471435547,-0.2217637300491333
1790334781377832000,6.78883203125,0.045513153076171875,0.8255248069763184,-0.8430453538894653
1790334781394300400,6.805300537109375,0.5746464729309082,-0.04473114013671875,0.1698627471923828
1790334781410743600,6.82174365234375,-3.017573833465576,1.246142864227295,0.05692875385284424
1790334781427198200,6.8381982421875,4.4376091957092285,1.033398151397705,-0.5845134258270264
1790334781443647000,6.85464697265625,4.413802146911621,-2.185175895690918,0.49715107679367065
1790334781460091100,6.871091064453125,4.1385955810546875,-0.4646482467651367,0.4380175471305847
1790334781476546800,6.887546875,-0.7185463905334473,0.6664066314697266,0.09449172019958496
1790334781492989400,6.903989501953125,-15.326247215270996,-4.665687561035156,-5.4676642417907715
1790334781509450500,6.920450439453125,-5.216289043426514,-6.309874534606934,-0.7579007148742676
1790334781525896700,6.936896728515625,-0.3980269432067871,1.5451979637145996,0.632466197013855
1790334781542342400,6.95334228515625,-1.144538164138794,-0.4589405059814453,0.9901090860366821
1790334781558802400,6.969802490234375,0.4478311538696289,-0.4687013626098633,0.4922354817390442
1790334781575248000,6.986247802734375,4.319774627685547,-0.09860038757324219,-0.9585566520690918
1790334781591707600,7.002707763671875,0.08854222297668457,1.034902572631836,-0.03797018527984619
1790334781608156400,7.019156494140625,-0.5771994590759277,-1.7190942764282227,-0.15232408046722412
1790334781624603400,7.035603271484375,1.6551363468170166,-0.7847881317138672,-0.049184322357177734
1790334781641088500,7.052088623046875,0.1928424835205078,0.0995187759399414,-0.3647516965866089
1790334781657549300,7.06854931640625,-2.7074713706970215,1.1639184951782227,0.9585065841674805
1790334781673997300,7.084997314453125,0.1011054515838623,1.588547706604004,-0.03420114517211914
1790334781690446600,7.101446533203125,-1.7755606174468994,1.7824487686157227,-0.37661921977996826
1790334781706892500,7.117892578125,-0.7124147415161133,-0.9610986709594727,-0.12795186042785645
1790334781723338800,7.1343388671875,-3.0420706272125244,2.337867259979248,-2.0579333305358887
1790334781739782700,7.15078271484375,0.06148815155029297,-1.3248882293701172,-1.2334892749786377
1790334781756239000,7.167239013671875,1.4212980270385742,0.6561784744262695,0.3954194188117981
1790334781772681500,7.183681396484375,-1.5682966709136963,-0.02521991729736328,-1.675325870513916
1790334781789179000,7.200178955078125,-0.08005475997924805,-0.06679153442382812,0.6922913789749146
1790334781805660700,7.21666064453125,-1.8128881454467773,0.8323545455932617,0.5326098203659058
1790334781822105000,7.23310498046875,0.5727410316467285,0.9184603691101074,-1.369311809539795
1790334781838594000,7.249593994140625,-0.6069977283477783,0.31569957733154297,1.1003978252410889
1790334781855035100,7.26603515625,-0.35138511657714844,-0.2906980514526367,-0.15361589193344116
1790334781871480000,7.28247998046875,2.106612205505371,-0.8596334457397461,-1.0144679546356201
1790334781887997000,7.298996826171875,-0.3707010746002197,-1.5106801986694336,-0.27791231870651245
1790334781904456700,7.315456787109375,0.5878252983093262,0.2949399948120117,-0.2405334711074829
1790334781920903200,7.331903076171875,1.7849764823913574,-1.2652616500854492,-0.24972474575042725
1790334781937353700,7.348353759765625,-0.9857127666473389,-0.02027606964111328,0.23108971118927002
1790334781953797000,7.364797119140625,-0.716101884841919,0.8050327301025391,0.34345120191574097
1790334781970240800,7.38124072265625,-1.2597262859344482,0.4628438949584961,-0.513721227645874
1790334781986683600,7.39768359375,-5.464123249053955,0.9135656356811523,-4.054559230804443
1790334782003143200,7.41414306640625,-3.444345712661743,0.59674072265625,1.2632874250411987
1790334782019592200,7.43059228515625,4.145119667053223,-0.8925323486328125,-0.8057374954223633
1790334782036042800,7.447042724609375,-1.9159399271011353,-0.6443576812744141,0.3382108807563782
1790334782052491800,7.46349169921875,-1.9868810176849365,2.5860629081726074,0.38716381788253784
1790334782068954400,7.479954345703125,2.7741200923919678,-0.6050481796264648,-0.7293764352798462
1790334782085405000,7.496405029296875,-0.43940067291259766,-0.15497589111328125,0.37691110372543335
1790334782101855700,7.512855712890625,5.831372261047363,-0.37534236907958984,-2.072239637374878
1790334782118305300,7.52930517578125,4.492081642150879,-0.08185100555419922,-0.7189059257507324
1790334782134765300,7.545765380859375,-1.09588623046875,0.2697868347167969,1.4207648038864136
1790334782151210000,7.5622099609375,-1.3007233142852783,1.0315394401550293,-0.27000725269317627
1790334782167681500,7.578681640625,2.0477893352508545,-1.4299449920654297,-0.0023651123046875
1790334782184134400,7.595134521484375,-0.9389898777008057,0.18034934997558594,0.24102771282196045
1790334782200611800,7.61161181640625,-0.6314249038696289,1.6600937843322754,1.1137810945510864
1790334782217102300,7.628102294921875,0.1845848560333252,0.27787303924560547,-0.1815270185470581
1790334782233554700,7.6445546875,-2.465770721435547,0.9167804718017578,0.7870122790336609
1790334782250022100,7.661022216796875,0.21505284309387207,1.2237539291381836,-0.4810020923614502
1790334782266469400,7.677469482421875,1.1144096851348877,0.246063232421875,-0.12885606288909912
1790334782282941400,7.69394140625,-0.41457557678222656,-0.9980049133300781,0.21026504039764404
1790334782299430700,7.7104306640625,0.29628467559814453,-0.6846294403076172,0.024024009704589844
1790334782315899000,7.72689892578125,1.1502704620361328,-1.155858039855957,0.1897953748703003
1790334782332397000,7.74339697265625,-1.1626372337341309,0.7452287673950195,1.340601921081543
1790334782348861400,7.759861328125,0.07320451736450195,1.2588744163513184,0.6356786489486694
1790334782365369600,7.77636962890625,1.5460238456726074,-0.2965555191040039,-0.3465231657028198
1790334782381837800,7.792837890625,-3.7616608142852783,0.6346244812011719,0.293362021446228
1790334782398285300,7.809285400390625,5.270748138427734,0.28906822204589844,-1.697121500968933
1790334782414753500,7.82575341796875,0.5087924003601074,-0.3736839294433594,-0.714349627494812
1790334782431203300,7.842203369140625,1.0571379661560059,-0.39103031158447266,-0.4930025339126587
1790334782447652600,7.858652587890625,-0.32837843894958496,-0.63641357421875,1.09080970287323
1790334782464103200,7.875103271484375,3.8779702186584473,0.3551187515258789,-1.0063199996948242
1790334782480554200,7.89155419921875,-0.754392147064209,1.417191505432129,1.2581170797348022
1790334782497010400,7.908010498046875,0.7931671142578125,1.189709186553955,-0.9926958084106445
1790334782513488100,7.924488037109375,-0.8794505596160889,0.6389150619506836,1.232720136642456
1790334782529960700,7.940960693359375,-0.09976887702941895,0.38409900665283203,-0.30070996284484863
1790334782546444500,7.957444580078125,2.6001651287078857,-1.3552532196044922,-1.2225319147109985
1790334782562893800,7.973893798828125,0.10024404525756836,0.008264541625976562,-1.2017180919647217
1790334782579365600,7.99036572265625,0.7136843204498291,0.6036882400512695,1.136277675628662
1790334782595846100,8.00684619140625,0.2691032886505127,-0.9465856552124023,-1.2513149976730347
1790334782612293400,8.02329345703125,-0.32909679412841797,0.17152881622314453,1.192751407623291
1790334782628746800,8.039746826171875,-0.11744403839111328,-1.104598045349121,1.2578741312026978
1790334782645191400,8.05619140625,-0.14216852188110352,-1.085942268371582,0.31039106845855713
1790334782661638000,8.072637939453125,0.6452534198760986,0.4348278045654297,1.3625401258468628
1790334782678088400,8.08908837890625,1.268155574798584,-0.1530933380126953,-0.8749669790267944
1790334782694532600,8.10553271484375,-0.28978419303894043,-0.10241222381591797,0.21778404712677002
1790334782710980000,8.12197998046875,1.7736804485321045,1.0559191703796387,-0.22137343883514404
1790334782727428400,8.138428466796874,0.504793643951416,1.7186508178710938,0.015912771224975586
1790334782743882000,8.154882080078124,-0.16773033142089844,1.732189655303955,-1.7075685262680054
1790334782760326700,8.17132666015625,1.5055818557739258,1.2388453483581543,0.0889962911605835
1790334782776772600,8.187772705078125,4.142883777618408,-0.20564651489257812,-0.6219874620437622
1790334782793219300,8.20421923828125,1.583845853805542,-1.134490966796875,-0.6303255558013916
1790334782809666300,8.220666259765625,4.089855194091797,-0.32323646545410156,-0.26545727252960205
1790334782826116900,8.237116943359375,7.303652763366699,-1.3896551132202148,-3.3382439613342285
1790334782842566700,8.253566650390624,-4.626505374908447,0.7458505630493164,0.9267569780349731
1790334782859016200,8.27001611328125,0.6972556114196777,0.33220577239990234,0.7980659008026123
1790334782875399700,8.286399658203125,0.7432551383972168,0.7558813095092773,0.767186164855957
1790334782890885400,8.301885498046875,4.636174201965332,-9.256372451782227,-4.595654487609863
1790334782907341600,8.318341552734376,-4.602724075317383,5.86609411239624,0.9469020366668701
1790334782923797500,8.334797607421875,8.205747604370117,2.7129082679748535,1.3882243633270264
1790334782940249300,8.351249267578124,1.1064519882202148,3.5469250679016113,1.4438591003417969
1790334782956700700,8.36770068359375,6.909513473510742,4.1671142578125,-4.289834022521973
1790334782973151000,8.38415087890625,2.459289789199829,-0.17624568939208984,3.2718567848205566
1790334782989618700,8.40061865234375,2.627837896347046,-0.5305366516113281,0.5985612869262695
1790334783006067700,8.417067626953125,1.7577719688415527,0.05088329315185547,-0.2565791606903076
1790334783022517500,8.433517578125,-5.4323201179504395,0.39161205291748047,-2.093179225921631
1790334783038966800,8.449966796875,2.0723419189453125,-0.9700231552124023,-0.3495030403137207
1790334783055415800,8.466415771484375,-1.044541358947754,-0.2312145233154297,-2.4595260620117188
1790334783071956500,8.48295654296875,6.689145088195801,0.7336697578430176,-2.18002986907959
1790334783088406500,8.499406494140626,1.2464275360107422,1.3290510177612305,0.2083888053894043
1790334783104855000,8.51585498046875,1.3008630275726318,-1.2970781326293945,-0.3726935386657715
1790334783121316400,8.53231640625,-2.381963014602661,1.6564440727233887,2.010173797607422
1790334783137725700,8.5487255859375,-0.9623401165008545,1.0382719039916992,0.5039613246917725
1790334783154137300,8.565137451171875,-1.1901023387908936,-0.09987640380859375,-2.462367534637451
1790334783170599200,8.58159912109375,-0.5983569622039795,-1.3015642166137695,-0.00699162483215332
1790334783187038700,8.598038818359376,-0.225233793258667,-0.9212322235107422,-0.6157832145690918
1790334783203481900,8.61448193359375,-1.7257194519042969,-0.663853645324707,-0.9727747440338135
1790334783219926800,8.6309267578125,-0.7525050640106201,0.12435531616210938,0.4500303268432617
1790334783236394500,8.64739453125,-0.7143135070800781,1.2622895240783691,1.1037251949310303
1790334783252837400,8.66383740234375,0.5440547466278076,-0.4378519058227539,-1.0502145290374756
1790334783269282800,8.68028271484375,-2.2705421447753906,0.5825934410095215,0.9469757080078125
1790334783285728500,8.696728515625,-3.0169570446014404,1.9074692726135254,1.5475788116455078
1790334783302171000,8.7131708984375,-1.1336740255355835,3.3506016731262207,2.897298812866211
1790334783318617900,8.729617919921875,0.021271228790283203,-2.9220428466796875,-0.13115215301513672
1790334783335062300,8.746062255859375,0.28588080406188965,-2.8126001358032227,-1.1534528732299805
1790334783351503600,8.762503662109374,0.49393653869628906,-0.562312126159668,-0.958585262298584
1790334783367951600,8.77895166015625,-2.9058926105499268,1.8028621673583984,1.745384931564331
1790334783384391700,8.7953916015625,0.1403353214263916,2.272982597351074,1.6079561710357666
1790334783400833800,8.811833740234375,-6.4784393310546875,-0.5735874176025391,4.946493148803711
1790334783417142000,8.82814208984375,-2.2649309635162354,0.7951984405517578,1.0471224784851074
1790334783433580300,8.844580322265625,2.3727738857269287,0.21782398223876953,-1.4011034965515137
1790334783450019300,8.861019287109375,-1.3252965211868286,-1.0906915664672852,-1.2709805965423584
1790334783466461400,8.87746142578125,-0.14504575729370117,3.26057767868042,1.9761744737625122
1790334783482915800,8.893915771484375,0.08942532539367676,-1.445347785949707,-1.3848514556884766
1790334783499353600,8.910353515625,2.2233874797821045,2.2789382934570312,0.9191052913665771
1790334783515794200,8.926794189453124,-1.0754917860031128,1.9913330078125,1.4741332530975342
1790334783532251600,8.943251708984375,0.872549295425415,0.9615988731384277,-0.8148272037506104
1790334783548697600,8.959697509765626,0.7033820152282715,0.2894287109375,0.5609924793243408
1790334783565204700,8.976204833984376,0.11330437660217285,0.0015287399291992188,-0.2954554557800293
1790334783581661000,8.992660888671875,1.5673766136169434,-0.7636404037475586,-1.575629472732544
1790334783598100500,9.0091005859375,-2.982076406478882,0.20650482177734375,-0.36351585388183594
1790334783614580000,9.025580078125,0.15960240364074707,0.7957525253295898,0.8361546993255615
1790334783631023600,9.042023681640625,0.39218831062316895,-0.8357639312744141,-1.2682509422302246
1790334783647529000,9.058529052734375,-1.516930103302002,0.5164823532104492,1.0706977844238281
1790334783663992300,9.074992431640625,1.5829899311065674,-0.0704183578491211,-0.8261032104492188
1790334783680436500,9.0914365234375,0.24117255210876465,0.7362818717956543,0.035752296447753906
1790334783696901400,9.1079013671875,-1.0618436336517334,-0.7471952438354492,-0.20854568481445312
1790334783713349000,9.12434912109375,-0.235335111618042,-0.6309232711791992,-0.8599772453308105
1790334783729859300,9.140859375,-0.7666788101196289,-1.3488073348999023,-0.2285313606262207
1790334783746300400,9.157300537109375,1.8571617603302002,1.5972895622253418,1.897148847579956
1790334783762743000,9.173742919921875,1.2341084480285645,0.9528384208679199,-0.2112412452697754
1790334783779200800,9.19020068359375,-0.06237483024597168,-0.36362552642822266,0.28996920585632324
1790334783795642000,9.20664208984375,-2.7637040615081787,0.5020475387573242,0.2176046371459961
1790334783812081400,9.223081298828125,1.2929468154907227,-1.960744857788086,-1.6408491134643555
1790334783828536800,9.239536865234374,0.38378453254699707,0.46322059631347656,-0.02252197265625
1790334783845068800,9.25606884765625,-0.22515535354614258,0.7244491577148438,0.24758434295654297
1790334783861394400,9.27239453125,-0.819655179977417,-0.8963985443115234,-0.8064656257629395
1790334783877840600,9.288840576171875,0.4371650218963623,0.4638519287109375,0.851599931716919
1790334783894333700,9.305333740234374,-1.403944730758667,2.087430477142334,-0.0534977912902832
1790334783910784000,9.321783935546875,1.0964844226837158,-0.6335077285766602,-1.2584142684936523
1790334783927223600,9.3382236328125,1.2815792560577393,-1.5278921127319336,-0.007566928863525391
1790334783943689700,9.354689697265625,1.500429391860962,-0.808441162109375,-0.28260087966918945
1790334783960134400,9.371134521484375,-0.8833136558532715,-1.6972131729125977,-0.9550323486328125
1790334783976584700,9.387584716796875,1.7243099212646484,1.1786818504333496,1.2093746662139893
1790334783993029400,9.404029296875,-2.184861660003662,2.6171321868896484,2.0028257369995117
1790334784009517600,9.420517578125,-0.3198354244232178,0.06309795379638672,-0.8327422142028809
1790334784025967400,9.43696728515625,0.09590649604797363,0.8256468772888184,1.0981767177581787
1790334784042411500,9.45341162109375,-0.8845914602279663,0.8034601211547852,-0.897470235824585
1790334784058879000,9.46987890625,-0.1596214771270752,-1.8338775634765625,-1.0232155323028564
1790334784075429400,9.486429443359375,-0.25776100158691406,-1.3163814544677734,-0.22189903259277344
1790334784091810800,9.502810791015625,-0.8695245981216431,-1.6874237060546875,-1.2786295413970947
1790334784108289500,9.51928955078125,-0.586077094078064,-1.8448047637939453,-1.0381581783294678
1790334784124591000,9.535591064453126,2.0268337726593018,1.375666618347168,1.3735146522521973
1790334784141091300,9.55209130859375,0.1824655532836914,2.03317928314209,1.5439763069152832
1790334784157553700,9.5685537109375,0.2303478717803955,0.2662982940673828,-0.11677098274230957
1790334784173996500,9.58499658203125,0.129746675491333,1.1961164474487305,0.8447020053863525
1790334784190457900,9.601457763671876,-1.5086960792541504,0.09896659851074219,-0.9088690280914307
1790334784206895600,9.6178955078125,-1.4451982975006104,-1.6648311614990234,-1.0185503959655762
1790334784223358500,9.6343583984375,-0.11070036888122559,-1.1917457580566406,-1.0963671207427979
1790334784239816700,9.650816650390626,-0.6429013013839722,-1.4008855819702148,-0.9550304412841797
1790334784256299500,9.667299560546875,0.7259354591369629,-0.6242208480834961,-0.2766227722167969
1790334784272745200,9.6837451171875,1.7884483337402344,1.9453182220458984,1.683117151260376
1790334784289185300,9.700185302734376,0.37781214714050293,2.2601633071899414,2.074347496032715
1790334784305691600,9.716691650390626,0.3710649013519287,0.22468852996826172,0.12661433219909668
1790334784322148000,9.733148193359375,0.4942753314971924,0.7125005722045898,0.8847625255584717
1790334784338591500,9.749591552734374,-0.6315916776657104,0.31203651428222656,-1.2540719509124756
1790334784355067400,9.7660673828125,-2.00380802154541,-1.7443103790283203,-1.1563746929168701
1790334784371511800,9.78251171875,-0.6860125064849854,-0.7853374481201172,-1.3496904373168945
1790334784387977700,9.798977783203124,-1.3250821828842163,-1.6177091598510742,-0.9231178760528564
1790334784404444000,9.81544384765625,-1.368665337562561,-0.9139280319213867,-0.2834639549255371
1790334784420890400,9.831890380859376,0.5761151313781738,2.6928248405456543,0.8607809543609619
1790334784437335800,9.848335693359376,0.31907010078430176,2.3324522972106934,2.113241195678711
1790334784453781000,9.864781005859374,0.6462178230285645,1.1809492111206055,0.5582568645477295
1790334784470290200,9.881290283203125,-0.07212996482849121,1.5696601867675781,1.4850144386291504
1790334784486751700,9.897751708984375,-0.68511962890625,0.02812480926513672,-1.1418581008911133
1790334784503196200,9.914196044921875,-1.5818555355072021,-1.914778709411621,-1.4990966320037842
1790334784519659800,9.93065966796875,-0.18141603469848633,-0.5523014068603516,0.47905492782592773
1790334784536103400,9.947103515625,0.13897228240966797,-1.2145681381225586,-0.10108017921447754
1790334784552611300,9.963611328125,0.840162992477417,-0.29144859313964844,0.9684393405914307
1790334784569053700,9.9800537109375,1.4126300811767578,1.4058175086975098,1.036160945892334
1790334784585538800,9.996538818359374,0.6637799739837646,1.8705825805664062,0.93721604347229
1790334784602022400,10.0130224609375,0.6898932456970215,0.8510165214538574,0.31665587425231934
1790334784618467000,10.029467041015625,-0.8545281887054443,0.9835062026977539,0.5915517807006836
1790334784634958800,10.045958740234376,-0.11696815490722656,-2.1820926666259766,-1.9768242835998535
1790334784651404800,10.06240478515625,0.735255241394043,-2.2863779067993164,-1.4615697860717773
1790334784667845000,10.07884521484375,1.3443200588226318,-0.5716161727905273,-1.7585554122924805
1790334784684325400,10.095325439453125,0.20380449295043945,-0.47930335998535156,-0.15941071510314941
1790334784700765400,10.111765380859374,0.7025966644287109,1.183927059173584,0.9296278953552246
1790334784717209900,10.1282099609375,0.6151385307312012,3.071335792541504,1.3231651782989502
1790334784733649000,10.14464892578125,0.09064841270446777,0.6124248504638672,-0.15462112426757812
1790334784750132000,10.161132080078126,1.3393988609313965,-0.1605062484741211,0.49486613273620605
1790334784766578200,10.177578125,0.35822272300720215,-0.1173858642578125,0.20334959030151367
1790334784783019300,10.194019287109375,-1.9992172718048096,-2.2343225479125977,-2.089484453201294
1790334784799509800,10.210509765625,0.36806488037109375,-1.629002571105957,-0.9603366851806641
1790334784815952000,10.226951904296875,1.4441747665405273,0.44216346740722656,-0.907097339630127
1790334784832397600,10.2433974609375,-0.3074359893798828,-0.10791206359863281,0.4000983238220215
1790334784848879400,10.25987939453125,0.7971498966217041,1.3479413986206055,0.7875075340270996
1790334784865319000,10.27631884765625,0.9143784046173096,1.9710121154785156,2.1989235877990723
1790334784881782500,10.292782470703125,-1.0644406080245972,1.801466464996338,0.5341360569000244
1790334784898275000,10.309275146484374,0.7776317596435547,0.10434246063232422,0.2722480297088623
1790334784914766300,10.325766357421875,0.2561218738555908,-0.14814186096191406,0.4821317195892334
1790334784931232500,10.342232421875,-2.745906114578247,-2.3408584594726562,-1.8238294124603271
1790334784947680300,10.35868017578125,-1.173557996749878,-2.2477684020996094,-1.568326711654663
1790334784964187600,10.375187744140625,0.45116472244262695,0.2999086380004883,-1.269707441329956
1790334784980649000,10.39164892578125,-0.8963073492050171,-0.31137561798095703,-0.2593519687652588
1790334784997141500,10.4081416015625,0.668065071105957,0.8348970413208008,0.36585164070129395
1790334785013607000,10.42460693359375,1.2214009761810303,2.122178554534912,1.7297532558441162
1790334785030051600,10.441051513671875,0.9374754428863525,1.8516764640808105,1.5908269882202148
1790334785046518800,10.457518798828126,1.3988921642303467,0.3473854064941406,0.2032759189605713
1790334785062956800,10.473956787109374,0.3833041191101074,0.8728461265563965,1.1261680126190186
1790334785079408400,10.490408447265626,-2.504150152206421,-1.162755012512207,-1.4246902465820312
1790334785095751400,10.50675146484375,-0.35686516761779785,-2.8864431381225586,-2.149152994155884
1790334785112194600,10.523194580078124,-0.43778228759765625,-1.2010040283203125,0.04440641403198242
1790334785128707800,10.539707763671874,-0.4587223529815674,-1.1899957656860352,-1.1794991493225098
1790334785145176600,10.556176513671875,0.4250929355621338,-0.6264171600341797,-0.25774335861206055
1790334785161623300,10.572623291015624,1.3956615924835205,1.2992215156555176,0.3345930576324463
1790334785178106600,10.589106689453125,1.5902736186981201,2.4422402381896973,2.4507017135620117
1790334785194549200,10.60554931640625,1.3025848865509033,0.8644251823425293,0.15781283378601074
1790334785211058400,10.622058349609375,0.7650785446166992,1.5066442489624023,1.2777793407440186
1790334785227499300,10.638499267578124,0.05251049995422363,1.4605097770690918,0.13789963722229004
1790334785243984000,10.65498388671875,-2.049787998199463,-2.2319889068603516,-3.811800718307495
1790334785260429300,10.67142919921875,-1.8000835180282593,-1.4677858352661133,1.1353485584259033
1790334785276871400,10.687871337890625,-0.24874210357666016,0.2029409408569336,0.7315964698791504
1790334785293365800,10.70436572265625,-2.393890142440796,-2.652285575866699,-1.1354646682739258
1790334785309826800,10.720826904296874,-0.18692755699157715,-2.1341400146484375,-3.4905648231506348
1790334785326272500,10.7372724609375,-1.479966402053833,-0.531550407409668,1.6242244243621826
1790334785342732500,10.753732666015624,0.9667043685913086,2.144029140472412,0.634829044342041
1790334785359180300,10.77018017578125,-0.15126633644104004,0.8591241836547852,1.0863642692565918
1790334785375695400,10.7866953125,0.8810429573059082,1.789628028869629,0.06896018981933594
1790334785392167000,10.8031669921875,-1.3127859830856323,-3.0815114974975586,-0.14300155639648438
1790334785408663000,10.8196630859375,-3.269690990447998,-0.12729835510253906,0.5468764305114746
1790334785425151200,10.836151123046875,-0.3674204349517822,-1.0852031707763672,-0.1460123062133789
1790334785441597400,10.852597412109375,0.786236047744751,-1.6665754318237305,-3.999687433242798
1790334785458110200,10.869110107421875,-1.431410551071167,-0.2567405700683594,1.711071491241455
1790334785474576100,10.885576171875,-1.4155652523040771,-0.1129007339477539,-0.2923009395599365
1790334785491073800,10.90207373046875,0.4891963005065918,-1.1406784057617188,-3.0591564178466797
1790334785507541000,10.918541015625,0.20199012756347656,0.744227409362793,3.034416675567627
1790334785523985200,10.934985107421875,0.5862786769866943,1.2468414306640625,-3.1699812412261963
1790334785540432000,10.951431884765626,-2.871253728866577,-0.07905197143554688,3.9286751747131348
1790334785556876500,10.96787646484375,1.1458714008331299,-1.0837020874023438,-5.639055252075195
1790334785573320400,10.984320556640625,0.42331409454345703,-1.1402482986450195,0.7268524169921875
1790334785589780200,11.0007802734375,2.769021511077881,1.0164332389831543,-3.63954758644104
1790334785606222800,11.017222900390625,-3.1026666164398193,2.116569995880127,5.007079601287842
1790334785622672100,11.033672119140626,1.0724468231201172,0.44638919830322266,-1.9571077823638916
1790334785639122700,11.050122802734375,-1.0785349607467651,-1.9393196105957031,-1.2064383029937744
1790334785655569400,11.0665693359375,-1.7656378746032715,-1.236699104309082,-0.8783779144287109
1790334785672034600,11.08303466796875,-0.5215859413146973,-0.022609710693359375,-3.650583028793335
1790334785688476400,11.099476318359375,0.32956695556640625,-0.4876747131347656,3.3501486778259277
1790334785704926700,11.1159267578125,1.0534493923187256,0.18924236297607422,-0.41535162925720215
1790334785721370600,11.13237060546875,1.0290281772613525,1.813896656036377,-2.2068240642547607
1790334785737815300,11.148815185546875,-2.909482955932617,-1.2721309661865234,0.4440736770629883
1790334785754259000,11.165259033203125,0.7176322937011719,-2.174422264099121,-4.312238693237305
1790334785770701000,11.181701171875,1.9629485607147217,0.40366649627685547,-0.8555035591125488
1790334785787145700,11.198145751953126,-0.5560948848724365,2.856355667114258,3.6607179641723633
1790334785803591200,11.214591064453124,-0.31843996047973633,1.8903913497924805,-3.4778783321380615
1790334785820032500,11.231032470703125,2.361262083053589,1.3469552993774414,0.978924036026001
1790334785836479700,11.247479736328126,-3.4715890884399414,-2.581862449645996,-0.11496901512145996
1790334785852919300,11.263919189453125,-2.153205633163452,-2.838717460632324,-6.081996917724609
1790334785869363200,11.28036328125,2.1958882808685303,2.679882049560547,0.9371335506439209
1790334785885783800,11.29678369140625,-0.7200520038604736,3.2076239585876465,2.3093528747558594
1790334785902239000,11.313239013671875,3.137800455093384,1.8885107040405273,0.9972176551818848
1790334785918703000,11.329703125,1.8281328678131104,-0.9687919616699219,0.41240715980529785
1790334785935144200,11.346144287109375,-4.343729019165039,-4.845380783081055,-1.3824694156646729
1790334785951648800,11.362648681640625,2.340363025665283,0.16639423370361328,-4.65132999420166
1790334785968088600,11.379088623046876,1.6265406608581543,2.5999245643615723,1.5824213027954102
1790334785984526600,11.395526611328124,0.48123884201049805,3.8556199073791504,3.774033784866333
1790334786000972500,11.41197265625,-1.8879826068878174,0.004731178283691406,-2.1432621479034424
1790334786017412000,11.428412109375,3.4499051570892334,-1.0120306015014648,-0.29666805267333984
1790334786033863000,11.44486279296875,-5.868999481201172,-3.5796890258789062,1.134660243988037
1790334786050306600,11.461306640625,0.007307291030883789,-0.8640422821044922,-6.18041467666626
1790334786066642000,11.477641845703126,1.710801601409912,3.7829012870788574,0.012768745422363281
1790334786083112000,11.49411181640625,0.19355535507202148,2.7467188835144043,4.620626926422119
1790334786099446000,11.510446044921874,2.571303606033325,1.687337875366211,2.322676181793213
1790334786115861800,11.52686181640625,-2.298072099685669,-2.4810523986816406,-2.1643359661102295
1790334786132310300,11.543310302734374,-0.2274937629699707,-3.346867561340332,-1.518887996673584
1790334786148753700,11.559753662109374,0.6903567314147949,-0.11942481994628906,-3.774812936782837
1790334786165222400,11.576222412109376,1.01837158203125,2.1107993125915527,-2.227480888366699
1790334786181663700,11.592663818359375,0.6184344291687012,4.164689064025879,2.96742582321167
1790334786198120700,11.60912060546875,-1.7283507585525513,0.887047290802002,1.246138095855713
1790334786214557200,11.62555712890625,4.966180801391602,0.4671821594238281,1.314769983291626
1790334786230994700,11.64199462890625,-3.0309805870056152,-3.964055061340332,-1.6601338386535645
1790334786247449900,11.658449951171875,-3.7590813636779785,-3.048018455505371,-2.844414472579956
1790334786263887400,11.674887451171875,1.6888134479522705,1.5890893936157227,-4.814391136169434
1790334786280330200,11.691330322265625,1.2883548736572266,2.5633373260498047,0.27466893196105957
1790334786296766000,11.707765869140625,0.35854077339172363,3.3869357109069824,5.886616230010986
1790334786313203000,11.724202880859375,-0.48123693466186523,-0.8627777099609375,-1.0222020149230957
1790334786329655600,11.740655517578125,4.095208644866943,-0.8485174179077148,0.7513947486877441
1790334786346090500,11.757090576171874,-0.2098231315612793,-2.2804336547851562,4.35336971282959
1790334786362532600,11.77353271484375,-2.913294792175293,-1.2182579040527344,-4.029387474060059
1790334786378979000,11.78997900390625,1.853848934173584,0.8274359703063965,-5.107938766479492
1790334786395419600,11.806419677734375,1.4897704124450684,2.7110486030578613,4.052586078643799
1790334786411863800,11.82286376953125,1.1453211307525635,3.4605398178100586,5.84365177154541
1790334786428299500,11.839299560546875,-3.8420357704162598,0.18085193634033203,-1.9828689098358154
1790334786444756000,11.855755859375,2.6850271224975586,0.23162364959716797,-2.3425121307373047
1790334786461193200,11.872193115234374,-2.885183572769165,-1.7095355987548828,4.130630970001221
1790334786477631700,11.8886318359375,-3.0742788314819336,-2.25189208984375,-2.511080265045166
1790334786494086000,11.9050859375,1.7516796588897705,0.6696887016296387,-4.756307601928711
1790334786510523000,11.92152294921875,2.6592063903808594,2.654815673828125,2.64254093170166
1790334786526963000,11.937962890625,1.3552329540252686,3.3877487182617188,5.637956619262695
1790334786543396000,11.95439599609375,-3.682178020477295,-0.7915515899658203,0.3777585029602051
1790334786559830000,11.970830078125,3.762341260910034,-1.5593595504760742,-1.2935388088226318
1790334786576281900,11.98728173828125,0.9795572757720947,-3.9151010513305664,2.206228256225586
1790334786592715800,12.0037158203125,-3.2916789054870605,-0.8161001205444336,-1.4305367469787598
1790334786609174800,12.0201748046875,1.932974100112915,0.8900561332702637,-5.946016788482666
1790334786625614600,12.036614501953125,1.3429796695709229,2.791656017303467,-0.0008902549743652344
1790334786642055000,12.053054931640625,1.6296393871307373,3.5873632431030273,3.3382351398468018
1790334786658502100,12.069502197265624,-3.7167601585388184,0.43175792694091797,0.2442624568939209
1790334786674941400,12.08594140625,2.7135884761810303,0.20722675323486328,1.410271406173706
1790334786691395800,12.102395751953125,1.104041576385498,-5.623702049255371,-2.403019428253174
1790334786707832800,12.118832763671875,-4.313902854919434,-1.8604927062988281,-2.8853368759155273
1790334786724271600,12.135271728515624,0.2710106372833252,0.6875743865966797,-2.442101001739502
1790334786740707300,12.151707275390624,2.653486490249634,1.4376444816589355,-4.348142623901367
1790334786757144300,12.168144287109374,1.6910974979400635,2.8278393745422363,2.8423683643341064
1790334786773582000,12.18458203125,-2.1596202850341797,2.230356216430664,5.546102046966553
1790334786790020600,12.2010205078125,2.1209137439727783,0.981959342956543,3.6586556434631348
1790334786806461400,12.21746142578125,1.7816052436828613,-6.295975685119629,-5.715356826782227
1790334786822913800,12.233913818359374,-0.9873405694961548,-2.907162666320801,-1.0768318176269531
1790334786839353900,12.250353759765625,-1.468922734260559,-0.25611305236816406,1.6455779075622559
1790334786855788800,12.266788818359375,-1.3306100368499756,0.9427914619445801,-6.488126277923584
1790334786872299500,12.283299560546874,3.7172584533691406,3.0207200050354004,-1.7015461921691895
1790334786888613000,12.299613037109374,2.10870361328125,2.8136610984802246,6.027951717376709
1790334786905074200,12.31607421875,0.46056032180786133,2.6399354934692383,7.336635589599609
1790334786921514000,12.332513916015625,1.1507389545440674,-5.7437334060668945,-5.4729766845703125
1790334786937974300,12.348974365234374,2.072408676147461,-0.1647663116455078,-2.8517017364501953
1790334786954415400,12.365415283203125,1.1043803691864014,-3.655716896057129,2.723531723022461
1790334786970856200,12.381856201171875,-7.321681022644043,1.7433204650878906,-5.255760192871094
1790334786987299600,12.398299560546874,2.967555046081543,1.356703758239746,-5.343365669250488
1790334787003740000,12.414739990234375,-3.1210103034973145,4.028960227966309,0.8011422157287598
1790334787020184000,12.43118408203125,2.2284555435180664,2.202913284301758,4.899083137512207
1790334787036626200,12.447626220703125,-3.1837832927703857,-0.4521350860595703,2.8179101943969727
1790334787053111600,12.464111572265624,2.539750099182129,-0.44574642181396484,2.2016568183898926
1790334787069572000,12.480572021484376,2.35923433303833,-4.859994888305664,-0.9838442802429199
1790334787085954300,12.496954345703125,-3.5929598808288574,-1.1586761474609375,-2.556509494781494
1790334787102392800,12.513392822265626,-2.0063185691833496,0.2716798782348633,2.644711494445801
1790334787118801000,12.52980078125,-2.9612467288970947,2.7344460487365723,-4.99281644821167
1790334787135239700,12.54623974609375,5.771588325500488,1.6721992492675781,-0.649418830871582
1790334787151676700,12.5626767578125,0.7959997653961182,2.3713479042053223,6.120761394500732
1790334787168111900,12.57911181640625,0.6537973880767822,2.0563321113586426,7.3016462326049805
1790334787184556500,12.595556640625,3.8062849044799805,-4.629367828369141,-5.3774518966674805
1790334787200996400,12.611996337890625,1.9237964153289795,0.2051410675048828,-3.1178579330444336
1790334787217437000,12.62843701171875,1.5090265274047852,-3.6513309478759766,3.957021951675415
1790334787233874000,12.6448740234375,-3.2567660808563232,-0.3879213333129883,-3.7676758766174316
1790334787250310700,12.661310546875,0.3644258975982666,2.005931854248047,-3.224499225616455
1790334787266749700,12.677749755859375,2.0639421939849854,1.9029507637023926,-1.521376132965088
1790334787283187700,12.694187744140624,1.4481019973754883,4.638211250305176,4.992088794708252
1790334787299625500,12.71062548828125,-1.2098671197891235,-1.937704086303711,3.020075798034668
1790334787316075800,12.72707568359375,3.0428032875061035,2.174206256866455,6.744392395019531
1790334787332511500,12.743511474609376,5.246959686279297,-8.673516273498535,-4.4924116134643555
1790334787348946200,12.7599462890625,-5.388130187988281,-2.1511850357055664,2.75490665435791
1790334787365386500,12.776386474609374,2.2093393802642822,-0.36923885345458984,5.247806549072266
1790334787381822700,12.79282275390625,-3.4514904022216797,1.027097225189209,-6.307458877563477
1790334787398259000,12.809259033203125,4.9444780349731445,2.969886302947998,-3.241122245788574
1790334787414692600,12.825692626953124,3.8784196376800537,2.4671201705932617,3.8499832153320312
1790334787431142000,12.842141845703125,3.3166158199310303,3.3684840202331543,7.861484527587891
1790334787447585300,12.858585205078125,0.2236490249633789,-2.274744987487793,2.53275728225708
1790334787464020500,12.8750205078125,2.948131561279297,0.690497875213623,5.018251895904541
1790334787480455000,12.891454833984374,4.2134904861450195,-3.208322525024414,-2.094327211380005
1790334787496890000,12.90789013671875,-6.489224433898926,-1.6967658996582031,-1.0939483642578125
1790334787513326800,12.924326904296874,-0.860675573348999,-0.8034553527832031,1.8450138568878174
1790334787529764900,12.940764892578125,-3.7470970153808594,-0.0899810791015625,-5.712385177612305
1790334787546205200,12.957205078125,-1.0694963932037354,3.34635066986084,-3.18563175201416
1790334787562656300,12.97365625,1.5092554092407227,1.667245864868164,-4.031850337982178
1790334787579095300,12.99009521484375,1.3675122261047363,4.666749954223633,2.9333620071411133
1790334787595532000,13.006531982421874,-1.0413413047790527,-0.8825387954711914,3.394397258758545
1790334787611975700,13.0229755859375,-0.22959423065185547,3.1980504989624023,5.798005104064941
1790334787628417300,13.039417236328125,-0.1996171474456787,-5.980413436889648,0.24754786491394043
1790334787644856300,13.055856201171874,1.4973115921020508,-1.947554588317871,-2.4408483505249023
1790334787661294800,13.072294921875,4.0971598625183105,-4.717174530029297,-4.620232105255127
1790334787677747700,13.088747802734375,-5.433215141296387,-1.2070388793945312,-6.051836967468262
1790334787694185200,13.105185302734375,-1.4653525352478027,-0.49132633209228516,0.9808495044708252
1790334787710623500,13.12162353515625,-5.1222076416015625,1.0974812507629395,-4.428249359130859
1790334787727060500,13.138060546875,1.2464046478271484,1.9902806282043457,-1.8182868957519531
1790334787743497700,13.154497802734374,2.8863580226898193,1.6148338317871094,-2.938055992126465
1790334787759935700,13.170935791015625,2.212653875350952,3.5240540504455566,-1.5571322441101074
1790334787776372500,13.18737255859375,2.066073417663574,3.196420669555664,6.768950462341309
1790334787792809000,13.20380908203125,1.1130492687225342,2.9997425079345703,6.576449871063232
1790334787809250000,13.22025,-2.9954633712768555,-7.5428972244262695,-0.15116214752197266
1790334787825684700,13.236684814453126,2.1897847652435303,1.840672492980957,3.420362710952759
1790334787842120700,13.25312060546875,2.7110543251037598,-4.448528289794922,-5.145293235778809
1790334787858562300,13.269562255859375,1.014108657836914,-8.778287887573242,-4.961240291595459
1790334787875001000,13.2860009765625,-1.0210866928100586,-1.0001516342163086,0.4961984157562256
1790334787891437300,13.302437255859376,-3.230055570602417,-0.4193840026855469,-4.8661603927612305
1790334787907871700,13.318871826171875,-2.1209514141082764,5.058296203613281,2.5072546005249023
1790334787924317200,13.335317138671876,-2.2036221027374268,3.143932342529297,-5.362533092498779
1790334787940756500,13.351756591796875,3.7024457454681396,2.147477626800537,-3.943789005279541
1790334787957194000,13.368194091796875,0.8106639385223389,3.140394687652588,2.1212873458862305
1790334787973634000,13.384634033203126,4.196834564208984,2.5651426315307617,1.3086655139923096
1790334787990072600,13.401072509765624,-1.7849785089492798,-2.1673049926757812,4.468310356140137
1790334788006512400,13.417512451171875,4.151970863342285,3.672122001647949,5.796605110168457
1790334788022949400,13.433949462890626,3.34963321685791,-5.894693374633789,-1.0369529724121094
1790334788039385900,13.4503857421875,-7.926890850067139,0.4361891746520996,-3.343409538269043
1790334788055838500,13.46683837890625,4.978021621704102,-2.212883949279785,-4.277890682220459
1790334788072278300,13.4832783203125,1.5547864437103271,-3.850454330444336,-0.19414520263671875
1790334788088703200,13.499703125,-2.463125228881836,-1.403564453125,-0.005698204040527344
1790334788105148700,13.516148681640624,-1.5942630767822266,-1.410202980041504,-5.712980270385742
1790334788121624000,13.5326240234375,1.0205416679382324,4.9008307456970215,1.781930685043335
1790334788138061600,13.5490615234375,-1.023230791091919,1.8738713264465332,-4.183098793029785
1790334788154497000,13.5654970703125,2.405687093734741,3.304056167602539,-1.7254133224487305
1790334788170847200,13.58184716796875,2.5066003799438477,-0.6052455902099609,1.3059604167938232
1790334788187299000,13.598299072265625,3.5078659057617188,4.523562431335449,3.575129508972168
1790334788203736600,13.614736572265626,0.173628568649292,-3.685563087463379,2.763967275619507
1790334788220172300,13.63117236328125,4.3647942543029785,2.9892020225524902,5.20619535446167
1790334788236606000,13.64760595703125,0.8140404224395752,-2.9301671981811523,1.277569055557251
1790334788253043200,13.664043212890626,-5.706569671630859,1.2362823486328125,4.2852864265441895
1790334788269476600,13.6804765625,2.3906850814819336,-4.0188398361206055,-4.940823078155518
1790334788285915400,13.696915283203126,1.7625772953033447,0.21371841430664062,-0.3800234794616699
1790334788302368000,13.713367919921875,1.107234001159668,-1.1258211135864258,-1.8754768371582031
1790334788318806500,13.729806640625,-7.370471000671387,-4.488602638244629,-1.8394813537597656
1790334788335245000,13.7462451171875,0.05807209014892578,1.2705297470092773,0.2171316146850586
1790334788351690000,13.76268994140625,-8.436076164245605,0.9742684364318848,-4.760217189788818
1790334788368130000,13.779130126953126,-1.109375238418579,1.7768254280090332,2.1897525787353516
1790334788384569300,13.7955693359375,-1.5865250825881958,-2.7512331008911133,-4.884274005889893
1790334788401004500,13.812004638671874,-1.1477348804473877,2.7463436126708984,4.529621124267578
1790334788417447700,13.82844775390625,-0.8315176963806152,1.9890284538269043,-4.269282817840576
1790334788433885000,13.844885009765624,0.32522153854370117,0.24558591842651367,-0.32902050018310547
1790334788450323500,13.861323486328125,1.3685824871063232,0.8103227615356445,-1.546964168548584
1790334788466761200,13.87776123046875,2.8799142837524414,4.140307426452637,-0.7761812210083008
1790334788483199700,13.89419970703125,3.3281564712524414,0.9202933311462402,0.4721510410308838
1790334788499637500,13.910637451171874,3.055636405944824,5.0124053955078125,3.595735549926758
1790334788516074500,13.927074462890625,1.4432971477508545,-0.19875621795654297,1.3344833850860596
1790334788532512300,13.94351220703125,1.9347808361053467,3.429813861846924,0.4622170925140381
1790334788548963000,13.959963134765625,-1.0783593654632568,0.023576736450195312,0.6841115951538086
1790334788565400300,13.976400390625,2.586615800857544,2.872093677520752,5.2765302658081055
1790334788581837600,13.992837646484375,-2.826754570007324,-4.336300849914551,0.2823023796081543
1790334788598278100,14.009278076171874,-2.4402146339416504,1.6635656356811523,3.414917230606079
1790334788614712600,14.025712646484376,0.8796417713165283,0.07691574096679688,-4.849620342254639
1790334788631145000,14.04214501953125,2.634615421295166,2.0200977325439453,4.398617267608643
1790334788647576300,14.058576416015624,-3.4350738525390625,-7.364062309265137,-2.0706706047058105
1790334788664016000,14.075015869140625,-0.2319629192352295,2.185354709625244,3.249279022216797
1790334788680451000,14.091451171875,2.4503331184387207,-1.4876594543457031,-4.854524612426758
1790334788696889600,14.1078896484375,-0.008714437484741211,2.205782413482666,1.4869048595428467
1790334788713327000,14.1243271484375,1.6050851345062256,-4.302981376647949,-5.371638298034668
1790334788729761500,14.140761474609375,0.22716307640075684,-6.8356218338012695,-1.535116195678711
1790334788746196000,14.157196044921875,-1.701616883277893,1.6414847373962402,-3.5083227157592773
1790334788762631000,14.173630859375,-3.6995058059692383,-4.399777412414551,-6.60468864440918
1790334788779064000,14.19006396484375,-0.3855702877044678,0.2702336311340332,1.3499314785003662
1790334788795513000,14.20651318359375,-2.4601893424987793,-0.26221656799316406,-4.728797912597656
1790334788811947800,14.22294775390625,-0.3108792304992676,3.574354648590088,4.924508094787598
1790334788828384000,14.239384033203125,-4.988661289215088,1.785905361175537,-5.158980846405029
1790334788844842200,14.25584228515625,-1.4267280101776123,2.554983139038086,4.067059516906738
1790334788861276000,14.27227587890625,-1.2314226627349854,0.3379378318786621,-4.784328937530518
1790334788877715000,14.28871484375,2.2948837280273438,1.2356023788452148,-0.29125308990478516
1790334788894020600,14.3050205078125,-0.7229828834533691,1.696725845336914,-1.0688633918762207
1790334788910372900,14.321372802734375,1.326683521270752,1.0668330192565918,-5.018294334411621
1790334788926776300,14.3377763671875,2.322868824005127,1.3774700164794922,0.49725890159606934
1790334788943214300,14.35421435546875,3.88753604888916,4.112008571624756,0.5143575668334961
1790334788959655200,14.3706552734375,-2.1600492000579834,-5.541667938232422,-3.4513449668884277
1790334788976088600,14.387088623046875,1.2598865032196045,0.5813579559326172,-2.0896987915039062
1790334788992530700,14.40353076171875,0.7125625610351562,-0.39821910858154297,0.4867565631866455
1790334789008966100,14.419966064453124,3.444901704788208,3.49025297164917,4.066888809204102
1790334789025402600,14.436402587890624,-0.9586567878723145,-3.256460189819336,-0.4083070755004883
1790334789041864200,14.4528642578125,2.7076613903045654,3.662698268890381,5.401153564453125
1790334789058299400,14.46929931640625,1.7876923084259033,-2.688204765319824,-1.5143027305603027
1790334789074741500,14.485741455078125,-4.074481010437012,2.174051284790039,6.780887603759766
1790334789091059500,14.5020595703125,2.60728120803833,-1.3349895477294922,-0.5475008487701416
1790334789107413500,14.51841357421875,1.5281343460083008,0.3273005485534668,2.4405078887939453
1790334789123862500,14.534862548828125,1.9033045768737793,-7.426026344299316,-4.276287078857422
1790334789140297200,14.551297119140624,2.018326759338379,-1.1565055847167969,0.8473865985870361
1790334789156792300,14.567792236328126,1.069697618484497,-2.5736427307128906,-3.2918481826782227
1790334789173229000,14.58422900390625,-1.760106086730957,-2.333658218383789,-0.4482460021972656
1790334789189666300,14.600666259765624,0.4450554847717285,1.9602742195129395,-1.9616377353668213
1790334789206106400,14.6171064453125,-6.218626499176025,-0.018317222595214844,-6.777491569519043
1790334789222542600,14.63354248046875,-0.8244054317474365,-2.149167060852051,-2.3580539226531982
1790334789238985200,14.649985107421875,-7.928746223449707,-4.59027099609375,-6.344440937042236
1790334789255421000,14.6664208984375,0.15552830696105957,2.799616813659668,2.070265293121338
1790334789271856400,14.6828564453125,-5.386552333831787,2.104100227355957,-2.90401029586792
1790334789288308700,14.699308837890625,-0.659003496170044,3.944398880004883,0.7669847011566162
1790334789304744400,14.715744384765625,-2.6719601154327393,1.3076143264770508,-0.0352022647857666
1790334789321190000,14.73218994140625,-0.1247415542602539,3.7294039726257324,1.783600091934204
1790334789337629700,14.748629638671876,-1.2426049709320068,-1.0158519744873047,-1.4940941333770752
1790334789354067000,14.76506689453125,-4.9739179611206055,2.3876595497131348,-2.9639790058135986
1790334789370512000,14.781511962890624,5.105976581573486,-0.4710063934326172,-0.5631508827209473
1790334789386944300,14.7979443359375,4.084713935852051,1.977247714996338,-3.9795031547546387
1790334789403402800,14.81440283203125,1.8476829528808594,1.6545662879943848,0.5319266319274902
1790334789419836700,14.830836669921876,2.361365795135498,5.4337968826293945,1.3763484954833984
1790334789436271900,14.84727197265625,-3.1111860275268555,-3.2272748947143555,-2.8700690269470215
1790334789452714800,14.86371484375,0.8993844985961914,3.7092885971069336,2.309443473815918
1790334789469150000,14.88014990234375,-2.382373332977295,-8.430496215820312,-4.048837661743164
1790334789485593600,14.896593505859375,3.9079456329345703,2.2546257972717285,3.48933744430542
1790334789502025200,14.913025146484374,-3.97236704826355,-0.5025339126586914,4.443109512329102
1790334789518457600,14.92945751953125,2.0774011611938477,-0.5914897918701172,1.5885272026062012
1790334789534909400,14.945909423828125,-1.243147373199463,-0.3855724334716797,2.8254497051239014
1790334789551345200,14.96234521484375,-4.410419464111328,1.7827744483947754,1.0648369789123535
1790334789567780400,14.9787802734375,0.1378169059753418,-2.5536861419677734,-6.3840436935424805
1790334789584218000,14.995218017578125,-3.1525092124938965,-0.3740568161010742,0.8157076835632324
1790334789600649200,15.011649169921874,-3.377913236618042,-0.5703630447387695,-4.449008941650391
1790334789617105400,15.02810546875,-3.395156145095825,0.6516146659851074,-3.4701528549194336
1790334789633539300,15.044539306640624,0.8552885055541992,-4.45377254486084,-5.12691068649292
1790334789649991700,15.06099169921875,-2.0032541751861572,-9.984708786010742,-1.4675157070159912
1790334789666426600,15.077426513671876,-10.23497200012207,3.779369831085205,-2.251887798309326
1790334789682860800,15.09386083984375,1.2379345893859863,-0.15170955657958984,-3.8029117584228516
1790334789699306800,15.110306640625,-0.865333080291748,0.8876924514770508,0.2754640579223633
1790334789715737300,15.1267373046875,-5.365438461303711,-4.023137092590332,-5.896355628967285
1790334789732180500,15.143180419921874,-3.517691135406494,-3.2463388442993164,-0.40141844749450684
1790334789748612600,15.159612548828125,-1.208134651184082,-5.743757247924805,-7.885814666748047
1790334789765046800,15.176046875,-0.8420090675354004,2.5231151580810547,3.444389820098877
1790334789781500200,15.192500244140625,-3.344285488128662,-0.2866678237915039,-4.794417381286621
1790334789797940000,15.20893994140625,-4.266516208648682,2.0222434997558594,5.392560958862305
1790334789814389500,15.225389404296875,-4.2546610832214355,3.8214168548583984,-4.579306602478027
1790334789830833000,15.2418330078125,-1.5053236484527588,4.282737731933594,-0.5074911117553711
1790334789847267300,15.258267333984374,-1.4949162006378174,0.5832681655883789,-1.7417869567871094
1790334789863712000,15.2747119140625,-2.150045394897461,3.605536937713623,0.42357468605041504
1790334789880146400,15.291146484375,-0.5218615531921387,-0.16092967987060547,-2.261721611022949
1790334789896532000,15.307531982421875,2.642604351043701,1.4579181671142578,-3.1919105052948
1790334789912966100,15.323966064453124,-4.902097702026367,0.4316520690917969,-1.595094919204712
1790334789929396000,15.34039599609375,4.927526473999023,2.9884586334228516,-0.5671708583831787
1790334789945839600,15.356839599609375,2.577515125274658,0.9545221328735352,-1.2072184085845947
1790334789962213600,15.373213623046874,3.278937816619873,1.03352689743042,-1.9253571033477783
1790334789978674200,15.389674072265626,-2.251431465148926,-2.004765510559082,1.403670310974121
1790334789995103000,15.40610302734375,3.421731948852539,2.478074073791504,0.9135725498199463
1790334790011534800,15.422534912109375,-0.8612425327301025,-2.7781572341918945,-1.050978660583496
1790334790027990000,15.438989990234376,2.6100878715515137,3.0863308906555176,3.9768471717834473
1790334790044422100,15.455422119140625,-1.2777280807495117,-0.7086467742919922,2.924628973007202
1790334790060866600,15.471866455078125,4.370433807373047,4.50273323059082,4.796524524688721
1790334790077341700,15.488341796875,2.7744035720825195,-1.8852005004882812,2.1716580390930176
1790334790093799200,15.504799072265625,1.4572925567626953,1.1704792976379395,5.633033275604248
1790334790110244600,15.52124462890625,2.994797706604004,-3.239630699157715,1.5153932571411133
1790334790126678500,15.537678466796875,-5.094332695007324,0.3841838836669922,4.563065052032471
1790334790143136500,15.554136474609376,3.732395648956299,-2.0164289474487305,-1.2760603427886963
1790334790159567400,15.5705673828125,4.329100131988525,2.004763603210449,4.8928303718566895
1790334790175999200,15.586999267578125,1.6220293045043945,-2.2248306274414062,-2.406496524810791
1790334790192445000,15.60344482421875,2.1109871864318848,-0.9031448364257812,4.277626037597656
1790334790208874500,15.61987451171875,1.7929472923278809,-1.4919204711914062,-2.312241554260254
1790334790225316900,15.63631689453125,0.552154541015625,-0.8776922225952148,-1.6501779556274414
1790334790241747200,15.652747314453125,-0.4943552017211914,1.7653241157531738,-2.0869696140289307
1790334790258177000,15.669177001953125,0.5785753726959229,1.5876288414001465,-0.5576627254486084
1790334790274631200,15.685631103515625,-0.5078542232513428,-1.2425003051757812,-2.5650954246520996
1790334790291062800,15.702062744140624,-1.9100279808044434,-5.607847213745117,-0.30382275581359863
1790334790307502600,15.718502685546875,3.3034298419952393,-2.3603124618530273,-2.5121941566467285
1790334790323936500,15.7349365234375,-0.6002256870269775,-3.6870346069335938,-4.217095375061035
1790334790340366800,15.751366943359375,-6.473027229309082,1.9160137176513672,-0.5265316963195801
1790334790356803300,15.76780322265625,-3.055363178253174,-2.8461074829101562,-2.5989890098571777
1790334790373235000,15.78423486328125,1.6281301975250244,1.4490575790405273,-0.1599581241607666
1790334790389692200,15.800692138671875,-7.0554423332214355,-2.8821096420288086,-2.202131748199463
1790334790406124500,15.81712451171875,3.252980947494507,0.10986804962158203,-1.3298146724700928
1790334790422603000,15.83360302734375,2.176051616668701,-2.249715805053711,-1.802640676498413
1790334790439044400,15.85004443359375,1.3814074993133545,-1.9130945205688477,0.1336967945098877
1790334790455474200,15.86647412109375,-0.5637288093566895,-2.6834630966186523,-1.7875921726226807
1790334790471910000,15.882909912109374,3.184373378753662,-0.20389842987060547,-1.0643551349639893
1790334790488341000,15.899341064453125,-1.9983874559402466,0.6971335411071777,-2.3836746215820312
1790334790504772900,15.91577294921875,1.4408493041992188,-1.7853803634643555,-1.078237771987915
1790334790521229800,15.932229736328125,-2.584023952484131,-2.2125797271728516,3.821288585662842
1790334790537659100,15.9486591796875,1.0908727645874023,1.530301570892334,-0.8061084747314453
1790334790554103000,15.96510302734375,-3.688570022583008,-3.817488670349121,-0.5053973197937012
1790334790570539800,15.981539794921876,-0.6926310062408447,-2.1707582473754883,-2.6213440895080566
1790334790586969900,15.997969970703124,-2.9235095977783203,-2.909574508666992,1.5755980014801025
1790334790603406300,16.01440625,1.114591360092163,0.33101367950439453,-0.8975677490234375
1790334790619836700,16.030836669921875,-3.7896525859832764,0.4604973793029785,0.06361985206604004
1790334790636292900,16.04729296875,2.9334652423858643,-2.24105167388916,-3.1497719287872314
1790334790652725800,16.063725830078123,3.5107975006103516,-0.02692890167236328,2.6035890579223633
1790334790669158700,16.08015869140625,-1.354074239730835,-1.4091987609863281,2.0931100845336914
1790334790685592000,16.096592041015626,0.9020466804504395,-0.06590557098388672,1.5079054832458496
1790334790702028500,16.113028564453124,1.1191320419311523,-0.8211078643798828,0.37419581413269043
1790334790718482000,16.12948193359375,3.1896212100982666,2.0124526023864746,3.068070888519287
1790334790734914000,16.1459140625,-0.8936405181884766,-0.47183895111083984,1.2514255046844482
1790334790751348700,16.1623486328125,1.7427361011505127,2.0372276306152344,1.2543070316314697
1790334790767794200,16.178794189453125,-0.10989570617675781,-3.029256820678711,0.6083908081054688
1790334790784224800,16.195224853515626,4.199496269226074,2.6476712226867676,-1.0477640628814697
1790334790800658400,16.211658447265624,0.07836294174194336,-0.9184703826904297,-0.2608916759490967
1790334790817102600,16.2281025390625,2.280412197113037,3.832932472229004,-1.2693586349487305
1790334790833538300,16.244538330078125,-1.8860411643981934,-1.789280891418457,-3.315964698791504
1790334790849975000,16.26097509765625,1.540956974029541,2.4390029907226562,-1.2468376159667969
1790334790866410500,16.277410400390625,-0.5592586994171143,-1.0145750045776367,-2.9093213081359863
1790334790882860300,16.2938603515625,-0.6215286254882812,0.7298903465270996,1.9172091484069824
1790334790899292700,16.310292724609376,-1.7584843635559082,-0.10593414306640625,-5.944214344024658
1790334790915728000,16.326727783203125,0.8502731323242188,1.7668371200561523,2.594602584838867
1790334790932180500,16.343180419921875,-1.9528329372406006,-4.1142778396606445,-5.416563987731934
1790334790948651300,16.3596513671875,-1.7323386669158936,0.6509971618652344,4.498719692230225
1790334790965111600,16.376111572265625,-3.1410276889801025,-3.461322784423828,-4.784578323364258
1790334790981546800,16.392546630859375,-0.44375157356262207,-0.44298648834228516,0.4572925567626953
1790334790997981400,16.4089814453125,-0.43269991874694824,-4.403011322021484,-0.9828414916992188
1790334791014432300,16.425432373046874,-1.186798334121704,1.386690616607666,0.45380711555480957
1790334791030865000,16.441864990234375,-1.5639526844024658,-3.602849006652832,3.6816866397857666
1790334791047304000,16.458303955078126,-0.33704566955566406,-3.580615997314453,-5.097467422485352
1790334791063746300,16.474746337890625,2.67050838470459,2.7665610313415527,2.610084295272827
1790334791080167000,16.4911669921875,-2.697566270828247,1.6121439933776855,-0.1120142936706543
1790334791096628700,16.507628662109376,2.029656410217285,0.38237857818603516,3.258136749267578
1790334791113065200,16.524065185546874,-1.1137504577636719,-2.3624048233032227,0.518223762512207
1790334791129566500,16.54056640625,4.257473468780518,2.211362361907959,-0.6769604682922363
1790334791145965600,16.556965576171876,1.2482402324676514,1.423924446105957,1.077747106552124
1790334791162423000,16.573423095703124,2.2663681507110596,2.9175615310668945,-0.7261998653411865
1790334791177912000,16.588912109375,-4.910513877868652,0.6710309982299805,-0.9008162021636963
1790334791194346000,16.605345947265626,1.5756909847259521,1.132138729095459,0.38902926445007324
1790334791210778600,16.621778564453123,-2.272484302520752,0.1487874984741211,-0.42958641052246094
1790334791227212000,16.6382119140625,1.4004058837890625,2.1244664192199707,4.082424163818359
1790334791243646700,16.654646728515626,-7.187188148498535,-1.6196117401123047,-6.040658950805664
1790334791260087600,16.671087646484374,2.2701547145843506,-0.06406593322753906,2.70375394821167
1790334791276524500,16.687524658203124,-0.24752449989318848,-0.9380016326904297,-4.565483570098877
1790334791292985300,16.7039853515625,-0.8257336616516113,0.6135573387145996,1.4757888317108154
1790334791309426700,16.7204267578125,-3.642005681991577,-5.487435340881348,-0.7573666572570801
1790334791325862000,16.73686181640625,-0.570324182510376,4.800780296325684,-1.1576616764068604
1790334791342299000,16.753298828125,1.6662836074829102,1.4331669807434082,0.20717954635620117
1790334791358736000,16.76973583984375,-2.928178310394287,-1.3114194869995117,-0.16086554527282715
1790334791375193900,16.78619384765625,-0.01660919189453125,-1.0752334594726562,1.0375609397888184
1790334791391644200,16.80264404296875,-1.8632044792175293,-3.208163261413574,0.5181670188903809
1790334791408079400,16.819079345703123,6.451152801513672,2.407721996307373,-1.805666208267212
1790334791424512800,16.8355126953125,1.0288636684417725,0.9878664016723633,1.489309310913086
1790334791440946400,16.851946533203126,2.4948487281799316,1.5290570259094238,0.8057172298431396
1790334791457435100,16.86843505859375,-1.4453964233398438,0.552060604095459,-2.2648773193359375
1790334791473869800,16.884869873046874,1.1856000423431396,4.233274936676025,-1.82779860496521
1790334791490303200,16.90130322265625,-8.091129302978516,-0.3285989761352539,-5.075787544250488
1790334791506758100,16.917758056640626,0.4035048484802246,-0.6991024017333984,2.17818021774292
1790334791523191800,16.93419189453125,-1.0437028408050537,-5.98942756652832,-5.7117414474487305
1790334791539631400,16.95063134765625,0.14048504829406738,1.9222173690795898,0.8757405281066895
1790334791556072000,16.967072021484373,-4.943270683288574,-0.9126071929931641,-0.22956347465515137
1790334791572554800,16.9835546875,-0.6223914623260498,0.8368992805480957,-0.8387057781219482
1790334791588997000,16.9999970703125,-0.5884015560150146,-0.2956686019897461,0.9200003147125244
1790334791605435100,17.01643505859375,0.5893979072570801,-2.756654739379883,-2.113567352294922
1790334791621891600,17.0328916015625,1.8607559204101562,0.7775106430053711,2.2665090560913086
1790334791638327000,17.0493271484375,0.8668298721313477,0.11348915100097656,-0.15587973594665527
1790334791654762500,17.065762451171874,4.854045867919922,2.4211249351501465,-0.3205251693725586
1790334791671208700,17.082208740234375,-1.8883967399597168,-0.07189655303955078,-0.13778233528137207
1790334791687642400,17.098642333984376,2.071221113204956,1.0323429107666016,-0.08684563636779785
1790334791704133600,17.115133544921875,-2.825153112411499,-1.515141487121582,-2.943251848220825
1790334791720568300,17.131568359375,0.7772560119628906,3.362497329711914,2.9106929302215576
1790334791737003000,17.1480029296875,0.2657814025878906,1.323002815246582,-3.5693857669830322
1790334791753461800,17.164461669921874,-0.12997984886169434,-1.0188789367675781,-0.2922956943511963
1790334791769897500,17.1808974609375,-5.5674238204956055,-3.4102420806884766,-2.1229512691497803
1790334791786330400,17.197330322265625,3.231353759765625,-1.2771425247192383,-0.6089348793029785
1790334791802773800,17.213773681640625,1.1965231895446777,-3.0555601119995117,1.6075382232666016
1790334791819211000,17.2302109375,-3.2894811630249023,0.19390106201171875,-2.3309834003448486
1790334791835648000,17.24664794921875,0.994666576385498,1.17335844039917,2.7426679134368896
1790334791852088300,17.26308837890625,-3.7815449237823486,-0.9054088592529297,-0.8715918064117432
1790334791868550400,17.27955029296875,5.618551254272461,0.6427555084228516,-4.1967926025390625
1790334791884987600,17.295987548828126,0.2615699768066406,-0.031574249267578125,2.661609411239624
1790334791901422300,17.31242236328125,4.332317352294922,1.801790714263916,-0.3032705783843994
1790334791917860900,17.32886083984375,-0.47159743309020996,-1.2772512435913086,-2.360743761062622
1790334791934233900,17.34523388671875,-0.8299152851104736,1.1166658401489258,2.579256057739258
1790334791950684400,17.361684326171876,-0.38568806648254395,-0.20947551727294922,-1.3474886417388916
1790334791967116000,17.378115966796877,0.9931216239929199,1.6531877517700195,2.6700286865234375
1790334791983547000,17.394546875,-0.594099760055542,-0.37195301055908203,-2.9351391792297363
1790334791999994600,17.41099462890625,-0.06664371490478516,1.42390775680542,3.127931594848633
1790334792016427300,17.42742724609375,-5.063658237457275,-3.170252799987793,-1.7492084503173828
1790334792032871000,17.443870849609375,2.662576675415039,-0.30161571502685547,0.6583719253540039
1790334792049310500,17.460310546875,0.1441185474395752,-0.04010009765625,1.665553092956543
1790334792065782300,17.4767822265625,-2.2124900817871094,-1.115743637084961,-1.4753315448760986
1790334792082221300,17.49322119140625,2.180588722229004,-0.0630502700805664,-1.0679779052734375
1790334792098655000,17.509655029296876,-1.8508260250091553,2.4549918174743652,0.7891068458557129
1790334792115105500,17.52610546875,5.033926963806152,0.5788092613220215,-3.666714906692505
1790334792131541200,17.542541259765624,-0.6444911956787109,-1.5650386810302734,1.4763903617858887
1790334792148022800,17.559022705078124,1.9578983783721924,-0.08371639251708984,-0.9595422744750977
1790334792164466000,17.5754658203125,-1.1862835884094238,-0.5740489959716797,-2.510154962539673
1790334792180902400,17.59190234375,0.26488184928894043,4.303586006164551,3.3265628814697266
1790334792197345300,17.60834521484375,-0.5196695327758789,-0.4487438201904297,-3.5708532333374023
1790334792213781800,17.62478173828125,1.1684787273406982,1.0813179016113281,1.6334657669067383
1790334792230217000,17.641217041015626,-1.744593858718872,-1.7752037048339844,1.9721026420593262
1790334792246676700,17.6576767578125,-0.7810778617858887,-1.144796371459961,-2.5068540573120117
1790334792263112700,17.67411279296875,0.007954120635986328,-0.1742687225341797,1.8643147945404053
1790334792279574000,17.690573974609375,-0.5709218978881836,-0.3341827392578125,-2.6654446125030518
1790334792296015400,17.707015380859374,2.365173101425171,-1.1823911666870117,1.9352617263793945
1790334792312453400,17.723453369140625,-0.39403724670410156,-1.3360576629638672,-0.7785232067108154
1790334792328891600,17.7398916015625,2.989736557006836,2.858611583709717,-0.37863779067993164
1790334792345330200,17.756330078125,-3.7124109268188477,2.0208072662353516,-1.788398265838623
1790334792361777400,17.77277734375,0.8551435470581055,2.271793842315674,1.3170113563537598
1790334792378215400,17.78921533203125,-5.78437614440918,-0.3056173324584961,-4.728021621704102
1790334792394652400,17.80565234375,2.6315412521362305,-0.6043329238891602,0.16942787170410156
1790334792411088600,17.822088623046874,-5.679324150085449,-4.130579948425293,-1.4156579971313477
1790334792427526000,17.83852587890625,2.1915159225463867,1.549787998199463,1.4725322723388672
1790334792443960300,17.854960205078125,-2.2298550605773926,-0.5728855133056641,1.2731616497039795
1790334792460393500,17.8713935546875,-0.25309252738952637,-1.231846809387207,-2.925520420074463
1790334792476829000,17.887828857421876,4.28767728805542,1.4792203903198242,-2.7826132774353027
1790334792493276200,17.904276123046873,-0.7411744594573975,-0.2488422393798828,0.7857253551483154
1790334792509711600,17.920711669921875,1.648496389389038,3.677063465118408,1.0119366645812988
1790334792526144800,17.937144775390625,-2.0972251892089844,-3.509885787963867,-4.741312026977539
1790334792542585300,17.95358544921875,1.6620044708251953,2.8427734375,5.9362406730651855
1790334792559022000,17.97002197265625,-5.169447422027588,-3.5349531173706055,-2.263765811920166
1790334792575457500,17.98645751953125,3.7939507961273193,1.3343210220336914,1.7264719009399414
1790334792591894800,18.002894775390626,3.021519422531128,0.18761682510375977,6.184565544128418
1790334792608337400,18.01933740234375,-0.46685242652893066,-0.17914295196533203,-1.0678973197937012
1790334792624775200,18.035775146484376,2.6213159561157227,2.6919102668762207,-1.8957557678222656
1790334792641211000,18.0522109375,1.1694302558898926,-2.559246063232422,-1.3682551383972168
1790334792657645600,18.0686455078125,0.877633810043335,1.4399561882019043,0.25521230697631836
1790334792674082300,18.085082275390626,-6.623849868774414,-5.119626998901367,-6.960808277130127
1790334792690520000,18.10152001953125,2.863581895828247,2.6582493782043457,2.3143088817596436
1790334792706957000,18.11795703125,-1.7817013263702393,0.7324862480163574,2.0799217224121094
1790334792723396900,18.13439697265625,-0.44142985343933105,-1.8395500183105469,1.324183702468872
1790334792739843600,18.150843505859374,-0.3661775588989258,1.8707575798034668,-3.6435885429382324
1790334792756282600,18.16728271484375,1.2689032554626465,0.7137517929077148,-2.496798038482666
1790334792772719900,18.183719970703127,2.436042547225952,1.9562182426452637,-1.4241514205932617
1790334792789164000,18.2001640625,-3.932480573654175,-5.310970306396484,-4.02071475982666
1790334792805603800,18.216603759765626,1.1772749423980713,1.588674545288086,1.8599121570587158
1790334792822042600,18.233042724609376,-7.762707710266113,-0.9404020309448242,-0.6094493865966797
1790334792838482000,18.24948193359375,1.976332187652588,0.9146528244018555,1.4999444484710693
1790334792854925600,18.265925537109375,3.3984522819519043,3.537799835205078,4.634894847869873
1790334792871360800,18.28236083984375,0.3383445739746094,-5.622716903686523,-4.771822929382324
1790334792887799000,18.298799072265624,3.2860119342803955,-0.11405563354492188,3.7763335704803467
1790334792904239600,18.315239501953126,3.989224672317505,1.5238003730773926,-1.8588290214538574
1790334792920680200,18.33168017578125,-0.6810376644134521,1.9473857879638672,4.4562506675720215
1790334792937121300,18.348121337890625,-5.23002815246582,-1.9622879028320312,-5.40103006362915
1790334792953559300,18.364559326171875,1.1590602397918701,0.7156004905700684,0.7369422912597656
1790334792970000400,18.38100048828125,-6.681211471557617,3.3142013549804688,2.164618968963623
1790334792986512600,18.3975126953125,0.7059755325317383,-1.0529537200927734,-0.04956388473510742
1790334793002950700,18.41395068359375,-0.7577955722808838,1.319117546081543,-0.7627825736999512
1790334793019409400,18.430409423828124,-2.19523286819458,-0.9307966232299805,-2.9560465812683105
1790334793035849000,18.446848876953126,0.2329251766204834,1.2872414588928223,1.9269044399261475
1790334793052282600,18.46328271484375,-4.401211261749268,1.594895839691162,-4.581207752227783
1790334793068718800,18.47971875,0.41143012046813965,0.5490803718566895,0.089569091796875
1790334793085121300,18.496121337890624,-2.7191338539123535,1.2613725662231445,4.8549604415893555
1790334793101564000,18.51256396484375,1.4957728385925293,-0.5681533813476562,-0.5569038391113281
1790334793118018600,18.5290185546875,5.816634178161621,0.9814858436584473,-1.0699095726013184
1790334793134455300,18.545455322265624,0.17934370040893555,-1.8213481903076172,-2.40572452545166
1790334793150897200,18.561897216796876,-0.5514891147613525,1.6740446090698242,2.88736891746521
1790334793167336400,18.57833642578125,-0.8407890796661377,-4.365411758422852,0.7687411308288574
1790334793183788800,18.594788818359376,1.5663585662841797,1.322977066040039,0.27997636795043945
1790334793200201000,18.611200927734377,0.9401512145996094,3.112154483795166,3.3336944580078125
1790334793216586200,18.627586181640623,-0.011172056198120117,-0.9835634231567383,-1.3363070487976074
1790334793233029400,18.644029296875,4.585695266723633,0.8794608116149902,0.928971529006958
1790334793249465300,18.66046533203125,-0.1635425090789795,-4.012302398681641,-3.7838382720947266
1790334793265909200,18.6769091796875,-2.7418441772460938,-0.7489118576049805,1.2770824432373047
1790334793282352400,18.693352294921876,0.11814355850219727,0.4571714401245117,0.8602955341339111
1790334793298836200,18.709836181640625,0.5851457118988037,1.1527843475341797,-0.515810489654541
1790334793315287600,18.72628759765625,3.316559076309204,1.780663013458252,2.0729987621307373
1790334793331726600,18.7427265625,-0.373157262802124,1.0970582962036133,-1.3862957954406738
1790334793348182500,18.7591826171875,1.492081642150879,0.6373648643493652,2.8209714889526367
1790334793364618500,18.775618408203126,1.186337947845459,-5.006638526916504,-3.9430761337280273
1790334793381059000,18.79205908203125,-5.418018341064453,2.5501976013183594,2.9338090419769287
1790334793397506300,18.80850634765625,0.7069225311279297,-1.3300304412841797,-0.43753576278686523
1790334793413947000,18.82494677734375,-0.6715407371520996,-1.1576957702636719,-0.501441478729248
1790334793430392000,18.84139208984375,2.3610897064208984,0.43023157119750977,1.858604907989502
1790334793446829000,18.8578291015625,2.1649277210235596,-1.4269046783447266,-0.7250223159790039
1790334793463268600,18.8742685546875,1.569967269897461,2.5575122833251953,2.6813201904296875
1790334793479725800,18.890725830078125,-3.9958391189575195,1.2701926231384277,-6.520808219909668
1790334793496166400,18.90716650390625,0.46619296073913574,0.35013580322265625,2.156036376953125
1790334793512609500,18.923609619140624,-1.0915565490722656,-4.0728759765625,5.640783786773682
1790334793529054000,18.940053955078124,0.7724659442901611,2.8813271522521973,-1.8017964363098145
1790334793545492000,18.956491943359374,5.248994827270508,2.0475525856018066,-0.2691049575805664
1790334793561938400,18.9729384765625,-1.3483574390411377,-1.2307634353637695,0.024425506591796875
1790334793578378800,18.989378662109374,-0.5150911808013916,2.226673126220703,3.4894497394561768
1790334793594836200,19.005836181640625,-3.1365866661071777,-1.49267578125,-5.485642910003662
1790334793611275800,19.02227587890625,0.21867084503173828,-2.94376277923584,-1.0070652961730957
1790334793627713500,19.038713623046874,1.0767488479614258,-2.1065635681152344,5.199782371520996
1790334793644157200,19.0551572265625,3.1416773796081543,3.3775887489318848,-0.8492031097412109
1790334793660596700,19.0715966796875,4.5918450355529785,3.0983071327209473,1.4674112796783447
1790334793677049000,19.088049072265626,-1.7914824485778809,-3.7642478942871094,-2.073882579803467
1790334793693489700,19.10448974609375,-3.204068422317505,1.1050410270690918,5.462210655212402
1790334793709932500,19.1209326171875,-4.418325424194336,1.7296724319458008,-1.5709786415100098
1790334793726299000,19.137298828125,2.5471386909484863,-1.3190698623657227,-0.4022402763366699
1790334793742708200,19.153708251953127,1.6158313751220703,0.49524641036987305,1.4109046459197998
1790334793759114500,19.170114501953126,0.6457533836364746,-1.0601272583007812,-1.95225191116333
1790334793775591000,19.1865908203125,0.9530012607574463,1.256676197052002,1.6533498764038086
1790334793792033000,19.203032958984377,0.39530181884765625,1.2954926490783691,-2.4519519805908203
1790334793808486700,19.219486572265627,0.9019021987915039,0.6800718307495117,1.3616085052490234
1790334793824925700,19.23592578125,-0.43928956985473633,-3.889998435974121,3.285933494567871
1790334793841383000,19.2523828125,1.708101749420166,-1.5299386978149414,-0.09589910507202148
1790334793857821200,19.2688212890625,1.8492450714111328,-0.537205696105957,-1.0562324523925781
1790334793874260200,19.28526025390625,0.012959957122802734,1.6889047622680664,-3.1872363090515137
1790334793890707700,19.301707763671875,2.2664926052093506,2.5434622764587402,2.9879472255706787
1790334793907154200,19.318154296875,-6.977761268615723,1.0199718475341797,-5.926759719848633
1790334793923601400,19.334601318359375,0.333038330078125,4.793216705322266,6.832448959350586
1790334793940012000,19.351011962890624,-0.5554187297821045,-5.624772071838379,-1.0844125747680664
1790334793956452600,19.36745263671875,0.5573217868804932,-0.2034626007080078,2.2876205444335938
1790334793972770000,19.38377001953125,4.194477558135986,-0.08478069305419922,-0.878575325012207
1790334793989210600,19.400210693359377,0.39535975456237793,-3.917313575744629,-1.7678756713867188
1790334794005665500,19.41666552734375,1.3340117931365967,3.816329002380371,4.864398002624512
1790334794022136300,19.43313623046875,-0.31273913383483887,1.1085124015808105,-2.9444427490234375
1790334794038577700,19.44957763671875,-1.0776987075805664,-1.753636360168457,1.254960060119629
1790334794055029800,19.46602978515625,0.21732187271118164,-2.9958066940307617,0.5997788906097412
1790334794071470300,19.48247021484375,1.7833750247955322,-5.652523040771484,-3.65372896194458
1790334794087828200,19.498828125,5.985107421875,2.2325124740600586,0.939556360244751
1790334794104166000,19.515165771484376,-1.4476025104522705,-0.03796577453613281,-3.152188301086426
1790334794120604000,19.53160400390625,0.29314327239990234,5.744804382324219,4.126169681549072
1790334794137039600,19.54803955078125,0.013021707534790039,-0.5648708343505859,3.6686205863952637
1790334794153378600,19.564378662109377,-4.028526306152344,4.275745391845703,1.150273084640503
1790334794169778200,19.580778076171875,5.140524387359619,-2.558424949645996,-3.2737832069396973
1790334794186192600,19.597192626953124,1.998619556427002,-6.573329925537109,-3.1705880165100098
1790334794202628900,19.61362890625,1.8944895267486572,0.7804651260375977,4.220160484313965
1790334794219068700,19.630068603515625,1.058100938796997,0.042037010192871094,-0.027233123779296875
1790334794235505200,19.646505126953127,0.6346166133880615,0.782961368560791,2.12307071685791
1790334794251942000,19.66294189453125,1.212451696395874,2.5871658325195312,4.035964488983154
1790334794268386300,19.67938623046875,1.0032095909118652,-1.6845512390136719,-4.11317253112793
1790334794284822300,19.695822265625,2.382155418395996,2.305220127105713,-0.4089336395263672
1790334794301288200,19.7122880859375,0.5192127227783203,-1.7678375244140625,-3.431130886077881
1790334794317726700,19.728726806640626,0.6930713653564453,0.9653449058532715,2.8718297481536865
1790334794334177000,19.745177001953124,-6.5676679611206055,0.5016860961914062,-0.7606678009033203
1790334794350615600,19.761615478515626,0.4774954319000244,-0.5238676071166992,-2.161726951599121
1790334794367053600,19.778053466796877,-2.002382278442383,5.6167120933532715,-2.2995247840881348
1790334794383518000,19.79451806640625,0.6584193706512451,-6.404766082763672,-5.031885147094727
1790334794399956700,19.810956787109376,-2.317288398742676,2.1515026092529297,3.7399230003356934
1790334794416395500,19.8273955078125,-0.4001200199127197,0.09879112243652344,-1.468353271484375
1790334794432833800,19.843833740234373,0.12227678298950195,-1.79681396484375,0.8075623512268066
1790334794449271600,19.860271484375,-0.9540963172912598,-1.8587141036987305,5.696078777313232
1790334794465742600,19.87674267578125,-1.6606289148330688,0.07914066314697266,-2.188291072845459
1790334794482179800,19.893179931640624,3.2865779399871826,2.2565650939941406,-0.4424099922180176
1790334794498619600,19.90961962890625,-1.0407140254974365,0.6267166137695312,-4.19999361038208
1790334794515064600,19.926064697265623,0.4257822036743164,2.778229236602783,4.390092849731445
1790334794531504400,19.94250439453125,-0.33563709259033203,-4.956732749938965,4.8144073486328125
1790334794547967500,19.958967529296874,-1.428786277770996,-3.641359329223633,-1.2236886024475098
1790334794564407600,19.975407470703125,6.793838024139404,2.8005261421203613,2.315995693206787
1790334794580864000,19.991864013671876,2.1122965812683105,-3.7280521392822266,-3.4237656593322754
1790334794597306400,20.008306396484375,-3.130779504776001,2.089095115661621,2.06796932220459
1790334794613748500,20.02474853515625,-5.117364406585693,0.13550376892089844,-1.731325626373291
1790334794630217700,20.0412177734375,0.3446624279022217,1.192185401916504,0.3638651371002197
1790334794646658600,20.057658447265624,-1.923271894454956,0.00354766845703125,2.1874752044677734
1790334794663099400,20.074099365234375,3.0273497104644775,-2.219468116760254,-2.1049084663391113
1790334794679541500,20.09054150390625,3.226675271987915,2.33381986618042,1.7859251499176025
1790334794695982600,20.106982666015625,-1.6461313962936401,-3.1916141510009766,-4.453009128570557
1790334794712428500,20.123428466796874,0.5233933925628662,3.3191423416137695,2.7614550590515137
1790334794728872000,20.139871826171873,-2.1936450004577637,-0.9041337966918945,6.610049724578857
1790334794745313500,20.1563134765625,1.604834794998169,-0.7813510894775391,-4.315101146697998
1790334794761761000,20.172760986328125,1.6374478340148926,2.5849266052246094,-0.15812444686889648
1790334794778203400,20.189203369140625,-0.16759419441223145,-5.294676780700684,-4.003432273864746
1790334794794666500,20.20566650390625,0.3407416343688965,2.0565056800842285,3.8164784908294678
1790334794811110000,20.22210986328125,-6.033470153808594,-0.3156700134277344,0.27114391326904297
1790334794827565300,20.2385654296875,-0.2590651512145996,-1.6868762969970703,-3.427971839904785
1790334794844007700,20.255007568359375,-2.3367724418640137,2.9702186584472656,-3.6617932319641113
1790334794860449500,20.271449462890626,2.2779080867767334,-2.240814208984375,-3.376434326171875
1790334794876912400,20.287912353515626,0.5509991645812988,1.784963607788086,3.281588315963745
1790334794893353200,20.304353271484374,0.0361325740814209,-2.73738956451416,-1.1487808227539062
1790334794909792500,20.32079248046875,1.5816287994384766,1.1842665672302246,0.10339021682739258
1790334794926231300,20.337231201171875,3.699431896209717,1.8170456886291504,4.590297698974609
1790334794942599700,20.353599609375,0.6333982944488525,-1.2029542922973633,-2.661728858947754
1790334794959030500,20.370030517578126,0.08003735542297363,-0.08551502227783203,2.251819610595703
1790334794975467300,20.38646728515625,-1.9281400442123413,-1.2520427703857422,-3.8980112075805664
1790334794991906000,20.402906005859375,1.8194241523742676,1.1597251892089844,2.661497116088867
1790334795008351500,20.4193515625,-0.1229085922241211,-0.647979736328125,4.768695831298828
1790334795024790000,20.4357900390625,0.6578969955444336,0.3705883026123047,0.007285118103027344
1790334795041248500,20.45224853515625,3.4969117641448975,3.1883773803710938,-0.5237951278686523
1790334795057664300,20.468664306640626,-0.6126792430877686,-7.968049049377441,-5.295094966888428
1790334795074118400,20.485118408203125,0.8094644546508789,1.5945401191711426,3.742677927017212
1790334795090553300,20.50155322265625,1.1258182525634766,0.03322315216064453,4.688720703125
1790334795106990800,20.517990966796877,-0.5818831920623779,1.4772214889526367,-2.070735454559326
1790334795123448800,20.53444873046875,5.2945709228515625,0.9801154136657715,-0.8811445236206055
1790334795139885600,20.550885498046874,-0.8934671878814697,-2.676131248474121,-2.924135684967041
1790334795156320800,20.56732080078125,-1.9696868658065796,1.6258716583251953,3.108405113220215
1790334795172800500,20.583800537109376,-4.53780460357666,0.5032844543457031,-3.600363254547119
1790334795189235200,20.600235107421874,0.5205957889556885,-1.8782052993774414,-1.97031569480896
1790334795205674800,20.6166748046875,1.011826753616333,0.6773152351379395,-0.5737967491149902
1790334795222107600,20.633107666015626,0.499997615814209,1.6278014183044434,-2.999943256378174
1790334795238542300,20.649542236328124,1.1036491394042969,2.0584535598754883,2.347871780395508
1790334795254982100,20.665982177734374,-1.6516563892364502,-1.862380027770996,-0.6171796321868896
1790334795271442200,20.682442138671874,-0.8535823822021484,-2.053384780883789,-0.5824909210205078
1790334795287899600,20.698899658203125,1.35176682472229,-0.9541912078857422,2.0247902870178223
1790334795304336000,20.7153359375,1.226621389389038,-1.5159635543823242,-3.4435293674468994
1790334795320787000,20.731786865234376,2.6486856937408447,1.36726713180542,0.322981595993042
1790334795337223400,20.748223388671875,-0.33991360664367676,-2.6721677780151367,-4.164078235626221
1790334795353659000,20.764658935546876,-3.606412172317505,2.5385499000549316,3.529275417327881
