time,seconds_elapsed,z,y,x
1790334774748747300,0.159747314453125,6.380547523498535,6.766014099121094,0.8475474119186401
1790334774765198300,0.1761982421875,6.797138690948486,6.744466304779053,0.8188169598579407
1790334774781623300,0.192623291015625,7.053318023681641,6.497863292694092,0.5219359993934631
1790334774798067000,0.20906689453125,7.163451671600342,5.9519853591918945,-0.33758243918418884
1790334774814517500,0.225517578125,6.478709697723389,5.932831764221191,-0.7182605266571045
1790334774830989000,0.241989013671875,5.9519853591918945,6.782773494720459,-0.05746084079146385
1790334774847439000,0.258439208984375,5.96874475479126,7.587224960327148,0.9241618514060974
1790334774863929000,0.27492919921875,5.702988624572754,7.73087739944458,1.5825673341751099
1790334774880439000,0.29143896484375,5.276820659637451,7.647080421447754,2.054224967956543
1790334774896875000,0.307875,4.6255974769592285,7.220912456512451,1.9033904075622559
1790334774913344300,0.32434423828125,4.206612586975098,6.9695210456848145,1.256955862045288
1790334774929796600,0.340796630859375,4.400542736053467,6.909666061401367,0.6631938815116882
1790334774946289200,0.3572890625,5.339069843292236,7.311892032623291,0.3519476354122162
1790334774962769000,0.373768798828125,6.320692539215088,7.225700855255127,0.22026655077934265
1790334774979225300,0.390225341796875,4.965574264526367,6.959944248199463,1.280897855758667
1790334774995710000,0.4067099609375,4.596867084503174,6.5265936851501465,1.8363527059555054
1790334775012159500,0.423159423828125,6.691793918609619,5.937620162963867,0.8020575642585754
1790334775028626200,0.439626220703125,9.069235801696777,5.006275653839111,-0.524330198764801
1790334775045152500,0.456152587890625,10.584765434265137,5.039794445037842,-0.629675030708313
1790334775061600500,0.4726005859375,10.45547866821289,5.475539207458496,0.272938996553421
1790334775078110000,0.48910986328125,10.266336441040039,5.396530628204346,0.7924807667732239
1790334775094561000,0.50556103515625,9.684545516967773,5.013458251953125,1.1899182796478271
1790334775111048200,0.522048095703125,8.738836288452148,4.833893299102783,2.3056161403656006
1790334775127560200,0.538560302734375,7.675810813903809,4.764461517333984,3.160346269607544
1790334775144017200,0.55501708984375,7.24485445022583,4.616020679473877,2.8179752826690674
1790334775160510700,0.5715107421875,8.377311706542969,4.2975921630859375,0.49799394607543945
1790334775176961000,0.5879609375,9.059659004211426,4.050989151000977,-0.7924807667732239
1790334775193450000,0.604449951171875,9.828198432922363,4.19224739074707,-1.4460978507995605
1790334775209957600,0.62095751953125,9.610325813293457,4.7836151123046875,-0.5051765441894531
1790334775226415400,0.637415283203125,8.552088737487793,4.726154327392578,0.2106897532939911
1790334775242899500,0.6538994140625,7.967903137207031,4.608838081359863,0.15322890877723694
1790334775259356400,0.6703564453125,8.039729118347168,4.721365928649902,-0.2106897532939911
1790334775275832600,0.68683251953125,8.257601737976074,4.687847137451172,-1.0773907899856567
1790334775292335400,0.70333544921875,8.990227699279785,4.671087741851807,-1.6974890232086182
1790334775308799700,0.7197998046875,9.660603523254395,4.565742492675781,-1.4221558570861816
1790334775325288400,0.736288330078125,9.981427192687988,4.627991676330566,-1.0007762908935547
1790334775341742800,0.752742919921875,9.916783332824707,4.594472885131836,-1.357512354850769
1790334775358216700,0.769216796875,9.864110946655273,4.501099109649658,-1.3000515699386597
1790334775374712000,0.785712158203125,10.129867553710938,4.7405195236206055,-0.8858546018600464
1790334775391159300,0.8021591796875,9.188945770263672,4.656722068786621,-0.9576807022094727
1790334775407610400,0.8186103515625,11.116278648376465,4.268861770629883,-1.0558429956436157
1790334775424060700,0.835060791015625,10.484209060668945,4.546588897705078,0.16759411990642548
1790334775440526000,0.851526123046875,9.550470352172852,3.9647979736328125,0.8427590131759644
1790334775456990700,0.86799072265625,8.954314231872559,4.683058738708496,1.6112977266311646
1790334775473435600,0.884435546875,8.564059257507324,4.639962673187256,0.8571242094039917
1790334775489929000,0.900928955078125,6.004657745361328,4.4077253341674805,-1.3287819623947144
1790334775506380500,0.917380615234375,6.730101108551025,4.106055736541748,-3.0190882682800293
1790334775522825000,0.933824951171875,10.235212326049805,4.55616569519043,-4.944026470184326
1790334775539327200,0.9503271484375,10.90558910369873,5.884947776794434,-4.503493309020996
1790334775555773400,0.9667734375,9.402029991149902,5.9304375648498535,-1.5131354331970215
1790334775572265000,0.983264892578125,5.983109951019287,5.2696380615234375,1.290474772453308
1790334775588715300,0.99971533203125,6.811503887176514,5.284003257751465,1.8531121015548706
1790334775605181200,1.01618115234375,6.507440090179443,5.276820659637451,-0.3232172429561615
1790334775621691600,1.032691650390625,6.605602264404297,5.456385612487793,-0.8882488012313843
1790334775638150000,1.04914990234375,6.610390663146973,5.439626216888428,-1.316810965538025
1790334775654642400,1.065642333984375,7.005434036254883,6.0405707359313965,-1.4915876388549805
1790334775671090400,1.08209033203125,7.314286231994629,6.291962146759033,-0.7781155705451965
1790334775687577300,1.098577392578125,8.966285705566406,5.9088897705078125,-0.7254431247711182
1790334775704056300,1.115056396484375,9.797073364257812,6.282385349273682,-0.12449848651885986
1790334775720515800,1.131515869140625,9.375694274902344,6.572083473205566,-0.19632454216480255
1790334775736981500,1.1479814453125,8.918401718139648,6.6127848625183105,-0.8451532125473022
1790334775753428500,1.164428466796875,8.508993148803711,6.299144744873047,-0.9648633003234863
1790334775769899000,1.18089892578125,9.188945770263672,5.56173038482666,0.033518824726343155
1790334775786385700,1.1973857421875,7.797914981842041,5.319916248321533,0.790086567401886
1790334775802858800,1.213858642578125,10.15141487121582,5.676652431488037,0.44532153010368347
1790334775819366000,1.230365966796875,8.956708908081055,6.840234279632568,0.8882488012313843
1790334775835816700,1.246816650390625,8.913613319396973,7.970297336578369,0.272938996553421
1790334775852306200,1.26330615234375,7.970297336578369,6.971915245056152,-1.5969325304031372
1790334775868818200,1.279818115234375,4.383783340454102,6.078877925872803,-1.2617442607879639
1790334775885267500,1.296267333984375,4.5394062995910645,6.205770969390869,1.6735470294952393
1790334775901757700,1.3127578125,6.349422931671143,6.490680694580078,2.161964178085327
1790334775918187000,1.32918701171875,6.794744491577148,6.172252178192139,2.583343744277954
1790334775934659800,1.345659912109375,6.464344501495361,5.396530628204346,1.5873557329177856
1790334775951169500,1.36216943359375,6.564900875091553,4.704606533050537,0.2825157940387726
1790334775967629000,1.378629150390625,7.33583402633667,5.018246650695801,1.460463047027588
1790334775984143400,1.395143310546875,10.02691650390625,4.661510944366455,2.1763293743133545
1790334776000602400,1.411602294921875,9.078812599182129,3.5003228187561035,3.1028854846954346
1790334776017072400,1.428072265625,9.040505409240723,2.5522189140319824,3.641580820083618
1790334776033591000,1.444591064453125,8.597578048706055,1.6328455209732056,3.0166940689086914
1790334776050046500,1.46104638671875,8.123526573181152,1.3670891523361206,2.473210334777832
1790334776066532600,1.47753271484375,9.837775230407715,0.849941611289978,0.9265560507774353
1790334776082990000,1.493989990234375,9.409213066101074,0.21547815203666687,0.6775590777397156
1790334776099464200,1.510464111328125,8.343792915344238,-0.5123591423034668,0.4572925269603729
1790334776116006100,1.527006103515625,7.524975776672363,-1.2401964664459229,0.1604115068912506
1790334776132459500,1.54345947265625,8.542511940002441,-1.802833914756775,1.4963760375976562
1790334776148930000,1.559929931640625,13.220781326293945,-2.4875755310058594,2.8826189041137695
1790334776165385200,1.57638525390625,14.267047882080078,-3.3494882583618164,0.5961562395095825
1790334776181857300,1.592857177734375,11.243170738220215,-3.667917013168335,-0.09576806426048279
1790334776198343200,1.60934326171875,8.834604263305664,-4.417302131652832,-0.2825157940387726
1790334776214794000,1.6257939453125,9.804255485534668,-4.994304656982422,-0.3016694188117981
1790334776231289900,1.642289794921875,11.458649635314941,-3.8810009956359863,1.764526605606079
1790334776247745000,1.6587451171875,8.427590370178223,-1.3742717504501343,2.6575639247894287
1790334776264196900,1.67519677734375,7.297526836395264,2.2888567447662354,4.843470096588135
1790334776280713500,1.69171337890625,0.8379706144332886,1.3263877630233765,2.2888567447662354
1790334776297160700,1.70816064453125,8.13789176940918,2.140416383743286,-0.8092401623725891
1790334776313655600,1.724655517578125,11.36048698425293,2.9472622871398926,-2.1068975925445557
1790334776330108000,1.74110791015625,11.70046329498291,2.7724854946136475,-0.19393034279346466
1790334776346553600,1.7575537109375,11.068394660949707,2.513911724090576,-0.33518823981285095
1790334776363101700,1.774101806640625,9.495404243469238,3.315969467163086,-0.5410895943641663
1790334776379553000,1.790552978515625,5.023035049438477,4.0749311447143555,1.280897855758667
1790334776396027400,1.80702734375,6.689399719238281,4.987122058868408,1.9800047874450684
1790334776412483600,1.823483642578125,8.667010307312012,5.171475887298584,2.0829553604125977
1790334776428974300,1.839974365234375,8.219294548034668,5.0469770431518555,2.6431987285614014
1790334776445458200,1.856458251953125,8.667010307312012,4.845864295959473,3.021482467651367
1790334776461914400,1.872914306640625,11.137825965881348,3.976768970489502,2.0853497982025146
1790334776478401300,1.8894013671875,10.852916717529297,3.19865345954895,0.8978256583213806
1790334776494848500,1.9058486328125,9.59596061706543,3.1244332790374756,0.35673606395721436
1790334776511316700,1.922316650390625,9.301473617553711,3.2297780513763428,0.16519992053508759
1790334776527811000,1.93881103515625,10.180145263671875,2.8610711097717285,0.43335050344467163
1790334776544264000,1.955263916015625,9.99339771270752,2.4851813316345215,-0.10055647045373917
1790334776560754000,1.97175390625,9.785101890563965,2.2170307636260986,-1.0989385843276978
1790334776577204000,1.988203857421875,9.871294021606445,2.0614075660705566,-0.6177040338516235
1790334776593668900,2.0046689453125,10.132261276245117,2.121262788772583,0.27054479718208313
1790334776610179000,2.021178955078125,9.531316757202148,1.9823989868164062,0.3974374830722809
1790334776626636300,2.03763623046875,8.75080680847168,1.4987702369689941,0.016759412363171577
1790334776643095600,2.054095458984375,8.729259490966797,1.5442601442337036,-0.6991068720817566
1790334776659543800,2.070543701171875,8.664615631103516,1.7310078144073486,-0.6655880808830261
1790334776676029400,2.087029541015625,8.130708694458008,1.922544002532959,-0.1388636976480484
1790334776692501800,2.103501708984375,7.8529815673828125,1.7693150043487549,0.5602431893348694
1790334776708973600,2.1199736328125,8.008605003356934,1.3024457693099976,1.3263877630233765
1790334776725454600,2.13645458984375,7.738059997558594,0.8978256583213806,1.2210428714752197
1790334776741901000,2.152901123046875,7.608773231506348,0.5410895943641663,0.7805097699165344
1790334776758368800,2.16936865234375,7.084442615509033,0.14604631066322327,0.38307225704193115
1790334776774893000,2.18589306640625,6.478709697723389,-0.14844051003456116,0.06224924325942993
1790334776791380700,2.202380615234375,5.698200225830078,-0.2992752194404602,-0.06703764945268631
1790334776807865900,2.218865966796875,6.687005519866943,-0.29209262132644653,0.6607996821403503
1790334776824320300,2.2353203125,7.663839817047119,-0.22026655077934265,0.6512228846549988
1790334776840790000,2.2517900390625,7.965508937835693,-0.23702596127986908,0.2537853717803955
1790334776857326300,2.268326416015625,7.671022415161133,-0.2753331959247589,0.2561795711517334
1790334776873779000,2.284779052734375,7.264008045196533,-0.3758896589279175,0.181959331035614
1790334776890243800,2.301243896484375,8.583212852478027,-0.8786720037460327,-0.6224924325942993
1790334776906691300,2.31769140625,9.921571731567383,-1.1516109704971313,-0.21787235140800476
1790334776923156500,2.334156494140625,11.717223167419434,-1.5753847360610962,0.8475474119186401
1790334776939651800,2.35065185546875,13.041216850280762,-1.6711528301239014,1.3958195447921753
1790334776956098800,2.367098876953125,11.745953559875488,-1.8315643072128296,1.0319008827209473
1790334776972585200,2.383585205078125,11.856086730957031,-1.9919757843017578,1.0773907899856567
1790334776989036800,2.400036865234375,10.78587818145752,-1.8267759084701538,1.522712230682373
1790334777005484300,2.416484375,11.377246856689453,-0.9792284965515137,3.0095114707946777
1790334777021955600,2.43295556640625,13.00051498413086,-1.1420341730117798,1.9177556037902832
1790334777038400500,2.449400390625,12.720393180847168,-1.98958158493042,0.4381389021873474
1790334777054870800,2.465870849609375,10.33098030090332,-2.5306711196899414,-0.8044517636299133
1790334777071309800,2.482309814453125,8.980650901794434,-2.1116859912872314,-1.048660397529602
1790334777087777300,2.49877734375,7.378929615020752,-1.1683704853057861,-0.8092401623725891
1790334777104283100,2.515283203125,6.469132900238037,-0.6416460275650024,0.31842881441116333
1790334777120701400,2.531701416015625,8.04691219329834,-0.7206547260284424,1.1348515748977661
1790334777137536800,2.548536865234375,10.137049674987793,-1.3838485479354858,0.7134721279144287
1790334777153488000,2.56448779296875,10.65898609161377,-2.185906171798706,0.8451532125473022
1790334777169837300,2.58083740234375,9.44991397857666,-0.7182605266571045,2.1811177730560303
1790334777186332200,2.597332275390625,8.56884765625,-1.3838485479354858,1.2282254695892334
1790334777202816800,2.613816650390625,8.501810073852539,-2.6384103298187256,1.3120225667953491
1790334777219298000,2.630298095703125,9.32302188873291,-2.674323320388794,2.8610711097717285
1790334777235750100,2.646750244140625,10.759542465209961,-2.6791117191314697,3.3638534545898438
1790334777252226800,2.663226806640625,11.30063247680664,-2.7246015071868896,3.4093432426452637
1790334777268696800,2.67969677734375,11.762712478637695,-3.095702886581421,2.8586769104003906
1790334777285191000,2.69619091796875,11.870451927185059,-3.7205893993377686,2.346317768096924
1790334777301682000,2.712681884765625,10.096348762512207,-4.759673118591309,2.0015525817871094
1790334777318145500,2.7291455078125,9.569623947143555,-4.565742492675781,1.9800047874450684
1790334777334616600,2.745616455078125,10.036493301391602,-3.576937437057495,1.6376339197158813
1790334777351093000,2.762093017578125,9.967061996459961,-3.337517261505127,1.50355863571167
1790334777367550500,2.778550537109375,10.139444351196289,-3.292027235031128,2.2170307636260986
1790334777384001000,2.7950009765625,9.794678688049316,-3.0406360626220703,1.920149803161621
1790334777400456700,2.811456787109375,10.086771965026855,-3.066972494125366,1.680729627609253
1790334777416937200,2.827937255859375,10.76193618774414,-3.442862033843994,1.0749965906143188
1790334777433415200,2.844415283203125,10.697293281555176,-3.4524388313293457,0.8403648138046265
1790334777449866000,2.860865966796875,10.472238540649414,-3.0550012588500977,1.599326729774475
1790334777466308900,2.877308837890625,10.541669845581055,-2.8155810832977295,2.319981336593628
1790334777482751500,2.89375146484375,10.347740173339844,-2.7748796939849854,2.0446481704711914
1790334777499223300,2.910223388671875,9.911994934082031,-2.9951462745666504,1.5753847360610962
1790334777515677700,2.926677734375,9.677363395690918,-3.1435868740081787,1.161187767982483
1790334777532133000,2.943133056640625,10.18493366241455,-3.1316158771514893,1.3215993642807007
1790334777548597200,2.95959716796875,11.525687217712402,-2.942473888397217,1.6879122257232666
1790334777565052700,2.976052734375,11.724405288696289,-3.0166940689086914,1.9105730056762695
1790334777581525500,2.992525390625,10.682928085327148,-2.853888511657715,1.9967641830444336
1790334777597997300,3.008997314453125,10.074800491333008,-2.5785553455352783,1.800439715385437
1790334777614446800,3.02544677734375,9.481039047241211,-2.4444799423217773,1.6041151285171509
1790334777630906600,3.04190673828125,10.196905136108398,-2.166752576828003,1.3694833517074585
1790334777647350000,3.05835009765625,9.945513725280762,-2.1284453868865967,1.5945383310317993
1790334777663832000,3.07483203125,10.0580415725708,-1.400607943534851,1.968033790588379
1790334777680304600,3.0913046875,9.39245319366455,-2.2840683460235596,1.173158884048462
1790334777696779000,3.107779052734375,8.40843677520752,-1.7836803197860718,1.556231141090393
1790334777713253600,3.124253662109375,8.111555099487305,-1.314416766166687,1.2090718746185303
1790334777729698800,3.14069873046875,8.121131896972656,-1.0342950820922852,0.790086567401886
1790334777746170400,3.15717041015625,8.075642585754395,-0.811634361743927,0.8930372595787048
1790334777762669000,3.1736689453125,8.056488990783691,-0.9600749015808105,1.3646949529647827
1790334777779157500,3.190157470703125,8.303091049194336,-0.9600749015808105,1.6759412288665771
1790334777795686100,3.20668603515625,8.71489429473877,-0.9289502501487732,2.33913516998291
1790334777812167700,3.223167724609375,8.951920509338379,-1.0654197931289673,2.5450363159179688
1790334777828623000,3.239623046875,10.139444351196289,-0.31364041566848755,3.49314022064209
1790334777845069800,3.25606982421875,10.232817649841309,-1.37906014919281,3.4596214294433594
1790334777861546500,3.27254638671875,10.374075889587402,-2.0853497982025146,3.313575267791748
1790334777878005200,3.289005126953125,10.002974510192871,-2.1380221843719482,3.665522813796997
1790334777894446800,3.30544677734375,10.065223693847656,-1.922544002532959,3.579331636428833
1790334777910902500,3.321902587890625,9.550470352172852,-1.5682021379470825,3.3518824577331543
1790334777927359200,3.338359130859375,9.493009567260742,-1.6184803247451782,3.181894063949585
1790334777943833900,3.354833740234375,10.644620895385742,-1.9393033981323242,2.073378562927246
1790334777960305000,3.371304931640625,9.80904483795166,-1.6328455209732056,2.0661959648132324
1790334777976751000,3.387751220703125,9.437943458557129,-1.338358759880066,2.0398597717285156
1790334777993201400,3.404201416015625,8.98543930053711,-1.137245774269104,2.0590133666992188
1790334778009649400,3.4206494140625,8.635885238647461,-0.9983820915222168,2.0829553604125977
1790334778026128400,3.43712841796875,8.458714485168457,-0.7972691655158997,1.922544002532959
1790334778042836700,3.453836669921875,8.580819129943848,-0.6607996821403503,1.8698714971542358
1790334778058882800,3.4698828125,8.779537200927734,-0.5817909836769104,1.9033904075622559
1790334778075348700,3.4863486328125,9.289502143859863,-0.5267243981361389,1.678335428237915
1790334778091815700,3.502815673828125,8.89685344696045,-0.47644615173339844,1.5155296325683594
1790334778108286000,3.519285888671875,8.259995460510254,-0.33039984107017517,1.237802267074585
1790334778124763100,3.53576318359375,7.0126166343688965,0.08379705995321274,0.7038952708244324
1790334778141207300,3.552207275390625,7.16584587097168,0.2753331959247589,1.0031704902648926
1790334778157672200,3.568672119140625,8.128314971923828,0.40940847992897034,1.0678139925003052
1790334778174148400,3.5851484375,8.865729331970215,0.33758243918418884,1.280897855758667
1790334778190627300,3.60162744140625,9.126696586608887,-0.9193734526634216,2.3918075561523438
1790334778207080000,3.618079833984375,9.821015357971191,-0.6847416758537292,1.9919757843017578
1790334778223526400,3.6345263671875,9.682151794433594,0.06703764945268631,1.7884687185287476
1790334778239993900,3.650993896484375,8.916007041931152,0.33518823981285095,1.7812861204147339
1790334778256451300,3.667451416015625,9.093177795410156,-1.0079588890075684,3.1962592601776123
1790334778272905500,3.683905517578125,9.330204010009766,-2.1571757793426514,3.3518824577331543
1790334778289396200,3.700396240234375,10.54406452178955,-2.470816135406494,1.1420341730117798
1790334778305847800,3.716847900390625,10.924742698669434,-2.382230758666992,0.7350199222564697
1790334778322318300,3.733318359375,10.855310440063477,-2.2242133617401123,0.8643068075180054
1790334778338818300,3.749818359375,11.238382339477539,-1.4508862495422363,0.8547300100326538
1790334778355268600,3.7662685546875,10.752359390258789,-1.137245774269104,1.015141487121582
1790334778371710700,3.782710693359375,10.551246643066406,-2.207453966140747,0.7637503147125244
1790334778388154400,3.799154296875,10.630255699157715,-2.734178304672241,0.608127236366272
1790334778404641800,3.815641845703125,11.645397186279297,-3.28963303565979,0.10295066982507706
1790334778421117200,3.8321171875,10.960655212402344,-3.421314239501953,-0.10295066982507706
1790334778437566500,3.84856640625,9.5408935546875,-2.4420857429504395,0.07900865375995636
1790334778454011400,3.865011474609375,9.916783332824707,-2.4229321479797363,0.7422025203704834
1790334778470452000,3.881451904296875,10.596736907958984,-2.8107926845550537,0.4118026793003082
1790334778486923800,3.897923828125,10.99656867980957,-3.1076738834381104,0.2082955539226532
1790334778503387600,3.9143876953125,9.825803756713867,-3.0526070594787598,0.47165772318840027
1790334778519861000,3.930861083984375,8.643068313598633,-2.7222073078155518,0.6703764796257019
1790334778536347100,3.94734716796875,7.977479934692383,-2.7557260990142822,0.4405331015586853
1790334778552803600,3.963803466796875,7.8960771560668945,-2.698265314102173,0.181959331035614
1790334778569279500,3.980279541015625,7.845798969268799,-2.8107926845550537,-0.4213795065879822
1790334778585756200,3.996756103515625,7.910442352294922,-3.1052796840667725,-0.4189853072166443
1790334778602231600,4.0132314453125,7.888894557952881,-3.045424461364746,-0.15562310814857483
1790334778618700500,4.029700439453125,7.869740962982178,-2.6408045291900635,0.040701430290937424
1790334778635145500,4.0461455078125,8.614337921142578,-2.4827871322631836,-0.2537853717803955
1790334778651602700,4.062602783203125,9.66539192199707,-3.0885202884674072,-0.7733271718025208
1790334778668063000,4.07906298828125,10.17296314239502,-2.9257144927978516,-1.0007762908935547
1790334778684539400,4.095539306640625,8.33182144165039,-2.073378562927246,-1.7190368175506592
1790334778701009000,4.1120087890625,5.767632007598877,-6.191405773162842,-1.1755530834197998
1790334778717452300,4.128452392578125,3.5865142345428467,-17.159242630004883,-2.564189910888672
1790334778733899000,4.14489892578125,15.365986824035645,-9.787496566772461,-6.1985883712768555
1790334778750366200,4.1613662109375,10.000580787658691,-4.01268196105957,-8.920795440673828
1790334778766742800,4.17774267578125,13.79060173034668,-0.28969839215278625,-3.7708675861358643
1790334778783186200,4.194186279296875,6.98628044128418,-5.9519853591918945,3.4787750244140625
1790334778799644200,4.21064404296875,11.480196952819824,-5.724536418914795,2.4229321479797363
1790334778816087800,4.227087890625,10.620678901672363,-5.415684223175049,0.10295066982507706
1790334778832535000,4.24353515625,4.637568473815918,-3.0310592651367188,-0.07900865375995636
1790334778848977000,4.259976806640625,8.037335395812988,-1.8842366933822632,-1.5442601442337036
1790334778865440300,4.276440185546875,11.23598861694336,-2.9328970909118652,-1.072602391242981
1790334778881882000,4.292882080078125,8.106766700744629,-4.043806552886963,-1.6041151285171509
1790334778898324500,4.309324462890625,6.48828649520874,-4.637568473815918,-0.08379705995321274
1790334778914777000,4.325777099609375,9.610325813293457,-3.4620156288146973,-0.17238251864910126
1790334778931221800,4.3422216796875,8.437167167663574,-3.5697548389434814,-2.7988216876983643
1790334778947667000,4.3586669921875,10.113107681274414,-3.3686418533325195,-1.7693150043487549
1790334778964114700,4.37511474609375,9.603142738342285,-4.613626480102539,-0.629675030708313
1790334778980564200,4.391564208984375,10.599130630493164,-3.9001545906066895,0.09816227108240128
1790334778997018400,4.408018310546875,8.925583839416504,-3.0765492916107178,0.2753331959247589
1790334779013484500,4.424484619140625,8.358158111572266,-3.071760892868042,-0.3687070608139038
1790334779029933600,4.44093359375,6.950367450714111,-0.6057330369949341,-0.4572925269603729
1790334779046390300,4.457390380859375,8.992621421813965,0.14365209639072418,-1.2976573705673218
1790334779062808000,4.47380810546875,10.110713958740234,-0.7781155705451965,-0.8403648138046265
1790334779079216000,4.490216064453125,10.953473091125488,-0.3280056416988373,-1.944091796875
1790334779095660500,4.50666064453125,12.952630996704102,-0.08619125932455063,-0.028730420395731926
1790334779112074500,4.523074462890625,9.80904483795166,-1.0127472877502441,-0.828393816947937
1790334779128519000,4.539518798828125,9.5408935546875,-1.039083480834961,-0.38546648621559143
1790334779144961300,4.555961181640625,9.591172218322754,-1.0678139925003052,-0.7924807667732239
1790334779161413400,4.572413330078125,8.53293514251709,-1.3263877630233765,-1.9105730056762695
1790334779177851400,4.588851318359375,9.943120002746582,-2.7269957065582275,-1.9081788063049316
1790334779194292000,4.6052919921875,9.138668060302734,-2.0398597717285156,-1.2042834758758545
1790334779210732300,4.621732177734375,9.481039047241211,-2.5953147411346436,-1.0678139925003052
1790334779227170600,4.638170654296875,9.691728591918945,-2.8850131034851074,-1.0582371950149536
1790334779243609900,4.65460986328125,10.280701637268066,-2.2601263523101807,0.21547815203666687
1790334779260066000,4.671066162109375,7.568071365356445,-2.956839084625244,-0.17477671802043915
1790334779276504300,4.68750439453125,8.561665534973145,-2.0925323963165283,0.24660277366638184
1790334779292955000,4.703954833984375,8.765172004699707,-2.1356279850006104,-0.7110779285430908
1790334779309396700,4.720396728515625,8.829815864562988,-2.1475989818573,-2.298433542251587
1790334779325836300,4.736836181640625,11.164162635803223,-1.9249382019042969,-1.6400281190872192
1790334779342276400,4.7532763671875,10.986991882324219,-3.028665065765381,-2.3271639347076416
1790334779358751200,4.769751220703125,9.792284965515137,-1.37906014919281,-2.537853717803955
1790334779375194400,4.7861943359375,9.361329078674316,-0.3471592366695404,-1.292868971824646
1790334779391637500,4.802637451171875,8.42040729522705,-2.6192567348480225,-0.42616790533065796
1790334779408091400,4.81909130859375,7.283161640167236,-4.434061527252197,-1.922544002532959
1790334779424532500,4.835532470703125,9.835380554199219,-3.9169139862060547,-2.315192937850952
1790334779440976000,4.851975830078125,9.425971984863281,-3.205836057662964,-0.17238251864910126
1790334779457420300,4.868420166015625,6.519411087036133,-4.28322696685791,0.12689268589019775
1790334779473862700,4.884862548828125,9.390059471130371,-5.298368453979492,0.3232172429561615
1790334779490303700,4.9013037109375,10.285490036010742,-5.633556365966797,-0.2513911724090576
1790334779506757000,4.917757080078125,10.656591415405273,-5.8873419761657715,-1.2401964664459229
1790334779523196200,4.934196044921875,10.979808807373047,-7.843404769897461,-2.0374655723571777
1790334779539648800,4.950648681640625,8.267178535461426,-6.7061591148376465,-2.0470423698425293
1790334779556089600,4.967089599609375,4.261679172515869,-3.2968156337738037,-2.1356279850006104
1790334779572532200,4.9835322265625,6.478709697723389,-2.408566951751709,-2.6360161304473877
1790334779588974000,4.99997412109375,5.585672378540039,-2.497152328491211,-0.5339069962501526
1790334779605439700,5.016439697265625,-5.1331682205200195,-8.252813339233398,-15.741876602172852
1790334779621885400,5.032885498046875,13.321338653564453,-4.153939723968506,-1.8962076902389526
1790334779638330600,5.04933056640625,16.754623413085938,-5.947196960449219,-5.070919036865234
1790334779654741200,5.0657412109375,11.836933135986328,-3.1028854846954346,-4.228160381317139
1790334779671149300,5.0821494140625,5.449203014373779,-2.2912509441375732,-0.569819986820221
1790334779687556600,5.098556640625,3.268085241317749,-2.456450939178467,-3.112462282180786
1790334779704000500,5.11500048828125,19.761741638183594,-2.145204782485962,4.426878929138184
1790334779720445200,5.131445068359375,5.736507415771484,-1.237802267074585,1.0007762908935547
1790334779736985000,5.147985107421875,6.809109687805176,-0.667982280254364,1.9105730056762695
1790334779753330200,5.164330078125,1.8962076902389526,-5.837063789367676,-4.881777286529541
1790334779769773800,5.18077392578125,6.390124320983887,-10.579977035522461,-6.038176536560059
1790334779786217700,5.1972177734375,-1.7046716213226318,-7.043741226196289,-4.043806552886963
1790334779802664200,5.213664306640625,1.3192051649093628,-4.49870491027832,-0.038307227194309235
1790334779819111200,5.230111083984375,7.264008045196533,-5.173870086669922,-1.886630892753601
1790334779835557000,5.24655712890625,4.752490520477295,-4.455609321594238,-0.7637503147125244
1790334779852020200,5.263020263671875,4.771644115447998,-4.697423934936523,4.1611223220825195
1790334779868474000,5.27947412109375,6.9695210456848145,-5.3582234382629395,1.9704279899597168
1790334779884918000,5.29591796875,7.848193168640137,-3.928884983062744,3.1316158771514893
1790334779901379300,5.31237939453125,7.884106159210205,-3.162740468978882,3.464409828186035
1790334779917828000,5.328828125,8.161833763122559,-5.714959621429443,1.0103530883789062
1790334779934270500,5.3452705078125,-13.306973457336426,-21.847089767456055,-29.127857208251953
1790334779950721500,5.361721435546875,6.057330131530762,-7.9631147384643555,0.3232172429561615
1790334779967197000,5.378197021484375,2.1380221843719482,-15.375563621520996,-4.156333923339844
1790334779983636500,5.394636474609375,16.675615310668945,-13.9462251663208,2.741360902786255
1790334780000078300,5.411078369140625,-25.299530029296875,-32.59226608276367,-10.350133895874023
1790334780016484000,5.427484130859375,-0.047884032130241394,-10.884040832519531,-1.6112977266311646
1790334780032931600,5.443931640625,4.800374507904053,-9.066842079162598,-1.5083470344543457
1790334780049377000,5.460376953125,3.7852327823638916,-9.528923034667969,-3.203441858291626
1790334780065782800,5.47678271484375,3.24414324760437,-8.597578048706055,-1.0869675874710083
1790334780082228000,5.49322802734375,4.580107688903809,-8.614337921142578,-1.1659762859344482
1790334780098541000,5.509541015625,3.8762125968933105,-9.682151794433594,1.2090718746185303
1790334780114985000,5.52598486328125,2.8826189041137695,-11.343728065490723,1.1468225717544556
1790334780131469300,5.54246923828125,4.211400985717773,-10.347740173339844,0.26575639843940735
1790334780147986000,5.55898583984375,6.411672115325928,-9.710882186889648,-1.8363527059555054
1790334780164435200,5.575435302734375,3.4787750244140625,-8.705317497253418,-1.3287819623947144
1790334780180845600,5.591845458984375,-0.7781155705451965,-5.518634796142578,-6.339846134185791
1790334780197226000,5.60822607421875,2.2816741466522217,-9.260771751403809,1.2473790645599365
1790334780213678300,5.62467822265625,7.357381820678711,-12.047622680664062,0.08619125932455063
1790334780230123000,5.641123046875,6.0190229415893555,-11.808202743530273,0.40222588181495667
1790334780246565600,5.657565673828125,3.043030261993408,-9.651026725769043,1.1659762859344482
1790334780263007700,5.6740078125,4.14915132522583,-9.232041358947754,1.3120225667953491
1790334780279495000,5.690494873046875,4.0078935623168945,-9.873687744140625,-0.2801215946674347
1790334780295954000,5.706953857421875,5.475539207458496,-9.921571731567383,-0.33997663855552673
1790334780312467700,5.7234677734375,1.1755530834197998,-10.347740173339844,-0.6009446382522583
1790334780328938200,5.739938232421875,5.25527286529541,-9.0859956741333,0.9169792532920837
1790334780345389800,5.756389892578125,4.759673118591309,-9.390059471130371,-1.920149803161621
1790334780361849000,5.77284912109375,1.2641384601593018,-6.562506675720215,-0.7230489253997803
1790334780378297900,5.7892978515625,1.2976573705673218,-7.953537940979004,-1.0414776802062988
1790334780394775000,5.805775146484375,6.179434776306152,-9.397241592407227,-2.1499931812286377
1790334780411222300,5.82222216796875,5.365406036376953,-9.560047149658203,-0.363918662071228
1790334780427669200,5.838669189453125,1.2234370708465576,-8.547300338745117,-1.7310078144073486
1790334780444128300,5.855128173828125,5.106832027435303,-7.285555839538574,-1.678335428237915
1790334780460579600,5.87157958984375,3.7469255924224854,-7.771578788757324,-1.5490485429763794
1790334780477040400,5.888040283203125,4.750096321105957,-7.565677165985107,0.811634361743927
1790334780493482000,5.90448193359375,6.576871871948242,-7.627926826477051,-1.0462661981582642
1790334780509926100,5.920926025390625,3.7900211811065674,-7.273584842681885,0.10295066982507706
1790334780526399200,5.937399169921875,2.367865562438965,-11.717223167419434,0.2322375625371933
1790334780542842600,5.953842529296875,1.4532804489135742,-10.982203483581543,-0.6033388376235962
1790334780559299300,5.97029931640625,0.7661445140838623,-11.549629211425781,5.272032260894775
1790334780575744000,5.986743896484375,4.290409564971924,-9.258378028869629,-0.22266076505184174
1790334780592192500,6.003192626953125,5.020640850067139,-9.787496566772461,-1.764526605606079
1790334780608664600,6.01966455078125,1.1300631761550903,-9.428366661071777,-1.1468225717544556
1790334780625104000,6.036103759765625,2.252943754196167,-8.683769226074219,-1.5729905366897583
1790334780641570300,6.0525703125,5.343858242034912,-13.069947242736816,-2.3127987384796143
1790334780658010400,6.06901025390625,5.5545477867126465,-8.528146743774414,-3.1866824626922607
1790334780674452700,6.08545263671875,-3.7660791873931885,-6.433219909667969,-1.2617442607879639
1790334780690897000,6.10189697265625,15.593435287475586,-7.022193431854248,-6.411672115325928
1790334780707348000,6.118347900390625,5.061342239379883,-7.814674377441406,-8.942343711853027
1790334780723794200,6.134794189453125,4.271255970001221,-9.552865028381348,-2.5234885215759277
1790334780740241000,6.151240966796875,4.505887508392334,-6.476315498352051,-4.043806552886963
1790334780756686600,6.1676865234375,4.824316501617432,-8.60236644744873,-2.4827871322631836
1790334780773150700,6.184150634765625,3.624821424484253,-8.075642585754395,-0.8643068075180054
1790334780789597700,6.20059765625,4.197035789489746,-10.18493366241455,-2.2601263523101807
1790334780806043400,6.21704345703125,2.43011474609375,-9.129091262817383,-0.871489405632019
1790334780822489600,6.233489501953125,4.5154643058776855,-10.04846477508545,-0.8355764150619507
1790334780838796500,6.249796630859375,4.467580318450928,-8.497021675109863,-1.845929503440857
1790334780855235800,6.26623583984375,2.8802247047424316,-9.708487510681152,-1.6112977266311646
1790334780871676700,6.2826767578125,3.804386615753174,-10.709263801574707,-0.3256114423274994
1790334780888126200,6.299126220703125,5.353435039520264,-9.653421401977539,-1.9919757843017578
1790334780904585000,6.3155849609375,3.205836057662964,-9.567230224609375,-1.7405846118927002
1790334780921029400,6.332029296875,3.4524388313293457,-9.014169692993164,-2.145204782485962
1790334780937479700,6.348479736328125,4.489128112792969,-10.733205795288086,-1.8052281141281128
1790334780953945600,6.364945556640625,1.4508862495422363,-8.767566680908203,-0.9768342971801758
1790334780970434000,6.38143408203125,4.716577529907227,-8.283937454223633,-2.006340980529785
1790334780986904300,6.397904296875,3.0334534645080566,-8.882488250732422,-1.6543933153152466
1790334781003374000,6.4143740234375,3.2082302570343018,-8.765172004699707,0
1790334781019858400,6.4308583984375,3.8570590019226074,-9.792284965515137,-1.534683346748352
1790334781036318200,6.447318115234375,3.5458126068115234,-10.105925559997559,-1.0079588890075684
1790334781052842000,6.463842041015625,1.9153614044189453,-8.552088737487793,0.35913026332855225
1790334781069352000,6.48035205078125,5.023035049438477,-9.648633003234863,-1.434126853942871
1790334781085818600,6.496818603515625,4.369418144226074,-10.110713958740234,-1.7357962131500244
1790334781102283000,6.513282958984375,3.1507694721221924,-9.600749015808105,-1.290474772453308
1790334781118745300,6.529745361328125,6.701370716094971,-10.034099578857422,-2.63362193107605
1790334781135268400,6.546268310546875,2.8778305053710938,-10.235212326049805,-1.843535304069519
1790334781151743000,6.562742919921875,3.112462282180786,-8.38449478149414,-2.274491548538208
1790334781168213200,6.579213134765625,3.8762125968933105,-10.105925559997559,-1.3215993642807007
1790334781184679400,6.595679443359375,2.4444799423217773,-8.389283180236816,-0.7206547260284424
1790334781201133300,6.61213330078125,4.108449935913086,-8.796297073364258,-0.011971008032560349
1790334781217590300,6.62859033203125,4.7836151123046875,-9.378087997436523,-1.522712230682373
1790334781234034700,6.64503466796875,3.315969467163086,-9.042900085449219,-0.35434186458587646
1790334781250478600,6.661478515625,3.670311212539673,-8.99740982055664,-1.5897499322891235
1790334781266946300,6.6779462890625,5.43723201751709,-8.169015884399414,-2.5450363159179688
1790334781283387600,6.6943876953125,3.162740468978882,-7.316680431365967,-1.3024457693099976
1790334781299842600,6.710842529296875,4.122815132141113,-8.904036521911621,-0.667982280254364
1790334781316286700,6.72728662109375,2.7988216876983643,-9.787496566772461,-0.8307880163192749
1790334781332729900,6.743729736328125,13.721169471740723,-7.601590633392334,-2.190694570541382
1790334781349186000,6.76018603515625,8.56645393371582,-8.022970199584961,-1.5682021379470825
1790334781365629000,6.77662890625,0.7206547260284424,-7.86734676361084,-1.5322890281677246
1790334781381968000,6.7929677734375,4.946420669555664,-7.637503623962402,-2.1954829692840576
1790334781398411800,6.809411865234375,4.8267107009887695,-9.289502143859863,-1.8052281141281128
1790334781414855000,6.82585498046875,-0.6033388376235962,-5.257667064666748,-1.965639591217041
1790334781431309300,6.842309326171875,9.172186851501465,-7.532158374786377,-1.8986018896102905
1790334781447758600,6.858758544921875,8.959102630615234,-10.862493515014648,-0.768538773059845
1790334781464213500,6.875213623046875,8.44434928894043,-9.27034854888916,-0.7996633648872375
1790334781480658200,6.891658203125,3.3446998596191406,-8.26478385925293,-1.0845733880996704
1790334781497099800,6.908099853515625,4.206612586975098,-3.6774938106536865,-0.7733271718025208
1790334781513562600,6.924562744140625,-1.4077905416488647,-15.363592147827148,-1.8746598958969116
1790334781530008000,6.941008056640625,3.3518824577331543,-7.532158374786377,-0.49559974670410156
1790334781546466300,6.95746630859375,2.5522189140319824,-9.560047149658203,-0.12689268589019775
1790334781562914600,6.97391455078125,4.113238334655762,-9.581595420837402,-0.6344634294509888
1790334781579360000,6.990360107421875,6.531382083892822,-9.196128845214844,-1.5753847360610962
1790334781595820000,7.006820068359375,3.6727054119110107,-8.111555099487305,-1.161187767982483
1790334781612268800,7.023268798828125,2.9927520751953125,-10.869675636291504,-1.2880805730819702
1790334781628736800,7.03973681640625,5.214571475982666,-9.938331604003906,-1.194706678390503
1790334781645215000,7.056215087890625,7.050923824310303,-9.222464561462402,-1.556231141090393
1790334781661661700,7.07266162109375,0.5937620401382446,-8.710105895996094,-0.6607996821403503
1790334781678109000,7.08910888671875,3.6990416049957275,-7.544129371643066,-1.2210428714752197
1790334781694557700,7.1055576171875,1.867477297782898,-7.333439826965332,-1.5514427423477173
1790334781711004400,7.12200439453125,3.00711727142334,-10.055646896362305,-1.2210428714752197
1790334781727450000,7.1384501953125,0.7733271718025208,-6.7277069091796875,-3.050212860107422
1790334781743894000,7.15489404296875,5.942408561706543,-8.983044624328613,-1.7621324062347412
1790334781760350200,7.17135009765625,5.51624059677124,-8.300697326660156,-0.43095630407333374
1790334781776792000,7.1877919921875,2.604891538619995,-8.944737434387207,-2.5043349266052246
1790334781793311700,7.204311767578125,4.082113742828369,-8.990227699279785,-0.15083470940589905
1790334781809772800,7.220772705078125,2.343923568725586,-8.092401504516602,-0.3232172429561615
1790334781826239200,7.2372392578125,3.6750996112823486,-7.108384609222412,-0.507570743560791
1790334781842704600,7.25370458984375,3.5482068061828613,-8.607154846191406,0.21787235140800476
1790334781859147000,7.27014697265625,3.7900211811065674,-9.220070838928223,-1.036689281463623
1790334781875612200,7.286612060546875,6.2201361656188965,-9.801861763000488,-1.900996208190918
1790334781892123000,7.303122802734375,3.909731388092041,-9.823410034179688,-1.2545616626739502
1790334781908568600,7.319568603515625,4.541800498962402,-9.909601211547852,-1.3215993642807007
1790334781925014300,7.33601416015625,5.880159378051758,-10.211270332336426,-1.1827356815338135
1790334781941464300,7.35246435546875,3.066972494125366,-8.983044624328613,-0.730231523513794
1790334781957908700,7.36890869140625,3.248931646347046,-8.190564155578613,-0.6823474764823914
1790334781974351000,7.38535107421875,2.5953147411346436,-8.573636054992676,-1.6065093278884888
1790334781990795500,7.40179541015625,2.875436305999756,-7.939172744750977,-0.26575639843940735
1790334782007255800,7.418255859375,0.27054479718208313,-8.494627952575684,0.12928688526153564
1790334782023704000,7.4347041015625,7.826645374298096,-9.998186111450195,-1.9369091987609863
1790334782040156200,7.45115625,1.7262194156646729,-9.763554573059082,-0.8140285611152649
1790334782056567800,7.46756787109375,1.623268723487854,-6.54574728012085,-0.768538773059845
1790334782073067500,7.484067626953125,4.309563159942627,-9.742006301879883,-1.1971008777618408
1790334782089517800,7.500517822265625,3.162740468978882,-9.289502143859863,-0.7829039692878723
1790334782105968000,7.516968017578125,9.452308654785156,-9.497797966003418,-3.265691041946411
1790334782122430200,7.53343017578125,8.10437297821045,-9.198522567749023,-1.9800047874450684
1790334782138876700,7.549876708984375,3.691859006881714,-9.227252960205078,-1.7764976024627686
1790334782155321600,7.566321533203125,3.7493197917938232,-9.32302188873291,-1.5131354331970215
1790334782171793000,7.58279296875,5.571307182312012,-10.572794914245605,-1.3287819623947144
1790334782188251600,7.599251708984375,2.612074136734009,-8.949525833129883,-1.0989385843276978
1790334782204748000,7.615748046875,2.9233202934265137,-7.469909191131592,-0.21547815203666687
1790334782221215500,7.632215576171875,3.73016619682312,-8.856152534484863,-1.5083470344543457
1790334782237668000,7.648668212890625,2.9520506858825684,-9.227252960205078,-1.0773907899856567
1790334782254134500,7.665134521484375,3.732560396194458,-7.920019149780273,-1.8171991109848022
1790334782270581500,7.68158154296875,4.611232280731201,-8.904036521911621,-1.4772224426269531
1790334782287076000,7.698076171875,3.0765492916107178,-10.14902114868164,-1.1468225717544556
1790334782303557600,7.7145576171875,3.77565598487854,-9.840168952941895,-1.3335703611373901
1790334782320036000,7.7310361328125,5.015852451324463,-9.375694274902344,-1.37906014919281
1790334782336510000,7.747510009765625,2.3056161403656006,-8.413225173950195,-0.026336219161748886
1790334782352978000,7.76397802734375,3.531447410583496,-7.903259754180908,-0.7326257228851318
1790334782369501000,7.7805009765625,5.0014872550964355,-9.459490776062012,-1.7166426181793213
1790334782385950000,7.796949951171875,0.24420857429504395,-9.071630477905273,-1.2761094570159912
1790334782402397200,7.813397216796875,6.54574728012085,-7.876923561096191,-1.4939818382263184
1790334782418865000,7.829864990234375,3.8810009956359863,-9.57441234588623,-2.0446481704711914
1790334782435315200,7.846315185546875,4.414907932281494,-9.59596061706543,-1.8315643072128296
1790334782451765800,7.862765869140625,3.021482467651367,-9.840168952941895,-0.2753331959247589
1790334782468216600,7.879216552734375,7.2352776527404785,-8.841787338256836,-2.3989901542663574
1790334782484667000,7.8956669921875,-0.9744400978088379,-9.86889934539795,-1.048660397529602
1790334782501139500,7.912139404296875,4.137180328369141,-8.01339340209961,-2.3774423599243164
1790334782517602800,7.928602783203125,2.470816135406494,-8.561665534973145,-0.15322890877723694
1790334782534094800,7.9450947265625,3.2537200450897217,-8.815450668334961,-1.6855180263519287
1790334782550557400,7.961557373046875,5.95677375793457,-10.553641319274902,-2.607285737991333
1790334782567006700,7.9780068359375,-0.4644751250743866,-10.551246643066406,-1.1468225717544556
1790334782583495700,7.99449560546875,4.086902141571045,-8.588001251220703,-0.2513911724090576
1790334782599957800,8.010957763671875,3.6511576175689697,-10.134655952453613,-2.6408045291900635
1790334782616412400,8.027412353515626,3.0621838569641113,-9.009381294250488,-0.22026655077934265
1790334782632857900,8.04385791015625,2.0805611610412598,-10.002974510192871,-0.07182604819536209
1790334782649303800,8.0603037109375,3.6128504276275635,-10.168174743652344,-1.434126853942871
1790334782665749000,8.0767490234375,4.165910720825195,-8.667010307312012,-0.22266076505184174
1790334782682200000,8.093199951171876,4.836287498474121,-9.224859237670898,-2.52109432220459
1790334782698644500,8.10964453125,3.3063924312591553,-9.155426979064941,-1.4676456451416016
1790334782715091700,8.126091796875,5.384559631347656,-7.989450931549072,-1.9153614044189453
1790334782731541200,8.142541259765625,2.7222073078155518,-7.395689010620117,-2.097320795059204
1790334782747993300,8.158993408203125,3.4524388313293457,-7.3023152351379395,-3.4380736351013184
1790334782764438000,8.17543798828125,5.116408824920654,-7.797914981842041,-1.6496049165725708
1790334782780884200,8.19188427734375,7.740454196929932,-9.246406555175781,-2.367865562438965
1790334782797331000,8.2083310546875,5.1595048904418945,-10.177751541137695,-2.408566951751709
1790334782813779200,8.224779296875,-6.208165168762207,-8.030152320861816,0.7422025203704834
1790334782830229500,8.2412294921875,10.927136421203613,-10.359710693359375,-5.365406036376953
1790334782846680000,8.25768017578125,-0.9145850539207458,-8.14028549194336,-1.292868971824646
1790334782863129300,8.27412939453125,4.534617900848389,-8.434772491455078,-1.659181833267212
1790334782878549200,8.28954931640625,7.132327079772949,-8.070854187011719,-2.5522189140319824
1790334782894998000,8.305998046875,6.433219909667969,-20.8894100189209,-4.7189717292785645
1790334782911454700,8.322454833984375,-0.7876923680305481,-2.604891538619995,-2.403778553009033
1790334782927910400,8.338910400390626,12.088324546813965,-5.7125654220581055,-1.9967641830444336
1790334782944362500,8.355362548828126,4.989516258239746,-4.8722004890441895,-1.9560627937316895
1790334782960813800,8.371813720703125,10.826580047607422,-4.242525577545166,-7.673416614532471
1790334782977263900,8.388263916015624,2.1356279850006104,-7.261613845825195,-2.853888511657715
1790334782993731600,8.404731689453126,6.167463779449463,-9.01895809173584,-3.004723072052002
1790334783010180600,8.4211806640625,5.214571475982666,-8.470685958862305,-3.864241600036621
1790334783026630000,8.4376298828125,-2.0039467811584473,-8.121131896972656,-5.748478412628174
1790334783043079200,8.4540791015625,5.521028995513916,-9.466673851013184,-4.022258758544922
1790334783059528700,8.47052880859375,7.996633529663086,-10.766724586486816,-6.026205539703369
1790334783076069600,8.487069580078124,10.189722061157227,-7.690176010131836,-5.966350555419922
1790334783092519000,8.503518798828125,4.714183330535889,-7.091625213623047,-3.6152446269989014
1790334783108983000,8.519983154296876,4.680664539337158,-9.725247383117676,-4.259284973144531
1790334783125428500,8.536428466796876,4.359841346740723,-6.615179061889648,-3.9025487899780273
1790334783141884000,8.5528837890625,3.9695863723754883,-7.642292022705078,-1.8195933103561401
1790334783158249700,8.569249755859374,2.0661959648132324,-8.547300338745117,-6.414066314697266
1790334783174709000,8.585708984375,2.693476915359497,-9.744400978088379,-3.9384617805480957
1790334783191149600,8.602149658203125,3.1052796840667725,-9.35893440246582,-4.525041103363037
1790334783207593500,8.618593505859375,1.647210717201233,-9.095572471618652,-4.857835292816162
1790334783224038100,8.6350380859375,2.8562827110290527,-9.2033109664917,-4.63517427444458
1790334783240505600,8.651505615234376,2.693476915359497,-7.16584587097168,-2.75812029838562
1790334783256948200,8.6679482421875,3.9264907836914062,-8.87051773071289,-4.924872875213623
1790334783273394700,8.684394775390626,1.0342950820922852,-7.860164165496826,-2.9735984802246094
1790334783289839600,8.700839599609376,0.1388636976480484,-6.555324077606201,-2.454056739807129
1790334783306282000,8.717281982421875,1.6065093278884888,-7.309497833251953,-5.963956356048584
1790334783322729200,8.733729248046876,2.913743495941162,-11.456254959106445,-4.185064792633057
1790334783339172600,8.750172607421876,3.1914708614349365,-11.362881660461426,-5.16429328918457
1790334783355621000,8.76662109375,3.421314239501953,-9.114726066589355,-4.948814868927002
1790334783372061700,8.783061767578126,1.9752163887023926,-9.536105155944824,-4.953603267669678
1790334783388502500,8.79950244140625,2.070984363555908,-7.378929615020752,-2.9735984802246094
1790334783404944000,8.81594384765625,-3.5697548389434814,-9.160215377807617,1.015141487121582
1790334783421252400,8.83225244140625,0.6488286852836609,-7.785943984985352,-2.892195701599121
1790334783437690400,8.8486904296875,5.281609058380127,-8.370129585266113,-5.329493045806885
1790334783454129200,8.865129150390626,1.5729905366897583,-9.694122314453125,-5.173870086669922
1790334783470572300,8.881572265625,2.7964274883270264,-6.708553314208984,-2.5929205417633057
1790334783487025400,8.898025390625,2.75812029838562,-10.132261276245117,-5.272032260894775
1790334783503463700,8.914463623046874,4.611232280731201,-6.466738700866699,-3.023876667022705
1790334783519904000,8.930904052734375,1.0893617868423462,-6.794744491577148,-2.5115175247192383
1790334783536362800,8.94736279296875,3.047818660736084,-7.82185697555542,-4.800374507904053
1790334783552831500,8.96383154296875,2.1499931812286377,-8.983044624328613,-4.106055736541748
1790334783569332500,8.98033251953125,2.2888567447662354,-8.78193187713623,-4.280832767486572
1790334783585770500,8.9967705078125,3.7421371936798096,-9.548076629638672,-5.559336185455322
1790334783602232800,9.01323291015625,-0.7996633648872375,-8.571242332458496,-4.357447147369385
1790334783618690800,9.02969091796875,1.6855180263519287,-9.059659004211426,-4.865017890930176
1790334783635157000,9.046156982421875,2.937685489654541,-9.445125579833984,-4.99669885635376
1790334783651656700,9.06265673828125,0.667982280254364,-8.252813339233398,-2.940079689025879
1790334783668103400,9.079103515625,3.7708675861358643,-8.83699893951416,-4.841075897216797
1790334783684552000,9.095552001953125,2.4229321479797363,-8.022970199584961,-3.998316764831543
1790334783701013500,9.112013427734375,1.1300631761550903,-9.50498104095459,-4.240131378173828
1790334783717484800,9.12848486328125,2.5043349266052246,-9.169792175292969,-4.491522312164307
1790334783733970400,9.144970458984375,1.4101848602294922,-10.113107681274414,-4.2544965744018555
1790334783750412000,9.161412109375,4.0533833503723145,-7.161057472229004,-2.1308395862579346
1790334783766853000,9.17785302734375,3.4308910369873047,-7.802703380584717,-4.244919776916504
1790334783783312100,9.19431201171875,2.1547815799713135,-9.11233139038086,-3.7469255924224854
1790334783799752000,9.210751953125,0.5219359993934631,-6.655880928039551,-3.24414324760437
1790334783816208000,9.227207763671874,3.531447410583496,-10.702081680297852,-5.681440830230713
1790334783832650200,9.243650146484375,2.6455929279327393,-8.271966934204102,-4.062960147857666
1790334783849201200,9.260201171875,2.054224967956543,-8.006210327148438,-3.7924153804779053
1790334783865506300,9.27650634765625,1.9249382019042969,-9.50737476348877,-4.51067590713501
1790334783881975600,9.2929755859375,1.86508309841156,-8.774748802185059,-3.9169139862060547
1790334783898444800,9.30944482421875,0.9217676520347595,-6.641515731811523,-4.07014274597168
1790334783914893800,9.325893798828124,3.442862033843994,-9.363722801208496,-5.260061264038086
1790334783931356400,9.3423564453125,3.6343982219696045,-10.259154319763184,-4.003105163574219
1790334783947801600,9.358801513671875,3.8570590019226074,-9.53849983215332,-4.278438568115234
1790334783964245500,9.37524560546875,0.31364041566848755,-9.830592155456543,-5.635950565338135
1790334783980695600,9.391695556640625,4.084507942199707,-7.55131196975708,-2.784456491470337
1790334783997141000,9.40814111328125,0.17477671802043915,-6.114790916442871,-1.987187385559082
1790334784013636400,9.42463623046875,2.0470423698425293,-8.669404029846191,-4.817133903503418
1790334784030079000,9.441078857421875,2.4684219360351562,-7.908048152923584,-2.8802247047424316
1790334784046522400,9.4575224609375,3.095702886581421,-6.236895561218262,-2.6408045291900635
1790334784062989600,9.473989501953126,2.2194249629974365,-10.56800651550293,-4.99669885635376
1790334784079542000,9.4905419921875,2.121262788772583,-10.050858497619629,-4.194641590118408
1790334784095944000,9.50694384765625,1.5107412338256836,-10.42195987701416,-5.250484466552734
1790334784112400000,9.52339990234375,0.24181437492370605,-11.046846389770508,-5.3342814445495605
1790334784128702500,9.539702392578125,3.758896589279175,-9.423578262329102,-4.709394931793213
1790334784145219000,9.556218994140625,2.5785553455352783,-6.701370716094971,-2.4181437492370605
1790334784161666600,9.57266650390625,2.628833532333374,-8.468291282653809,-4.077325344085693
1790334784178129000,9.58912890625,2.5306711196899414,-7.539340972900391,-3.112462282180786
1790334784194567400,9.6055673828125,0.8882488012313843,-8.635885238647461,-4.869806289672852
1790334784211006000,9.622005859375,1.9129672050476074,-8.33182144165039,-4.606443881988525
1790334784227486000,9.63848583984375,2.296039342880249,-9.926360130310059,-5.051765441894531
1790334784243926500,9.654926513671874,1.7621324062347412,-10.137049674987793,-4.908113479614258
1790334784260416000,9.671416015625,3.134010076522827,-9.361329078674316,-4.225766181945801
1790334784276856000,9.68785595703125,4.197035789489746,-6.789956092834473,-2.2697031497955322
1790334784293319400,9.7043193359375,3.3039982318878174,-7.268796443939209,-3.450044631958008
1790334784309819000,9.72081884765625,2.7772738933563232,-8.51138687133789,-3.825934410095215
1790334784326261500,9.737261474609374,2.8993782997131348,-8.02536392211914,-3.064578056335449
1790334784342719200,9.75371923828125,1.7693150043487549,-8.425195693969727,-5.207388877868652
1790334784359178200,9.77017822265625,1.357512354850769,-8.5903959274292,-5.305551052093506
1790334784375622700,9.78662255859375,1.9847931861877441,-10.06043529510498,-3.6774938106536865
1790334784392106000,9.80310595703125,1.0749965906143188,-10.3549222946167,-4.876988887786865
1790334784408558000,9.81955810546875,1.0103530883789062,-9.655815124511719,-4.240131378173828
1790334784425005000,9.836005126953125,2.956839084625244,-6.045359134674072,-3.1028854846954346
1790334784441447000,9.852447021484375,2.7030537128448486,-6.406883716583252,-1.845929503440857
1790334784457915000,9.868914794921874,2.4181437492370605,-8.413225173950195,-3.84269380569458
1790334784474418200,9.885418212890626,2.293645143508911,-7.173028469085693,-2.477998733520508
1790334784490863400,9.90186328125,1.6424223184585571,-8.722076416015625,-5.1116204261779785
1790334784507329800,9.918329833984375,0.7422025203704834,-10.666168212890625,-5.468356609344482
1790334784523770000,9.93477001953125,2.140416383743286,-9.306262016296387,-3.485957622528076
1790334784540237300,9.9512373046875,2.626439332962036,-9.469067573547363,-3.9169139862060547
1790334784556722700,9.96772265625,3.1651346683502197,-9.057265281677246,-2.9688100814819336
1790334784573164000,9.9841640625,3.7277719974517822,-7.364564418792725,-2.896984100341797
1790334784589673700,10.000673828125,2.9735984802246094,-6.904877662658691,-2.9879636764526367
1790334784606134500,10.017134521484374,1.8842366933822632,-9.002198219299316,-4.120420932769775
1790334784622601000,10.03360107421875,2.8443117141723633,-7.16584587097168,-2.7078421115875244
1790334784639069700,10.050069580078125,2.1787235736846924,-10.958261489868164,-5.9088897705078125
1790334784655515000,10.066514892578125,3.047818660736084,-11.058817863464355,-5.39174222946167
1790334784671978200,10.082978271484375,3.667917013168335,-9.342175483703613,-5.686229228973389
1790334784688436500,10.0994365234375,2.540247917175293,-9.246406555175781,-4.086902141571045
1790334784704875300,10.115875244140625,0.026336219161748886,-9.856928825378418,-4.098873138427734
1790334784721319700,10.132319580078125,2.9520506858825684,-5.6910176277160645,-2.6144683361053467
1790334784737758700,10.1487587890625,2.4444799423217773,-8.149862289428711,-4.082113742828369
1790334784754248000,10.165248046875,3.711012601852417,-8.920795440673828,-3.426102638244629
1790334784770689800,10.181689697265625,2.736572504043579,-8.877699851989746,-3.713406801223755
1790334784787153200,10.198153076171875,2.140416383743286,-8.034940719604492,-4.201824188232422
1790334784803620000,10.2146201171875,2.734178304672241,-10.38844108581543,-4.886565685272217
1790334784820065300,10.231065185546875,3.821146011352539,-8.315062522888184,-4.831499099731445
1790334784836531000,10.247531005859376,2.0829553604125977,-8.865729331970215,-3.514688014984131
1790334784852989700,10.26398974609375,2.494758129119873,-9.641449928283691,-3.9911341667175293
1790334784869429500,10.280429443359376,3.603273630142212,-7.754819393157959,-3.397372245788574
1790334784885892000,10.29689208984375,1.3263877630233765,-6.955155849456787,-3.383007049560547
1790334784902390000,10.31339013671875,3.177105665206909,-8.650250434875488,-3.643975019454956
1790334784918900500,10.329900390625,2.6599581241607666,-8.904036521911621,-3.428496837615967
1790334784935344600,10.3463447265625,-0.35434186458587646,-11.097125053405762,-5.74129581451416
1790334784951815400,10.3628154296875,1.2497732639312744,-9.849745750427246,-5.779603004455566
1790334784968316200,10.379316162109374,2.8419175148010254,-8.453926086425781,-5.193023681640625
1790334784984763400,10.395763427734375,1.4963760375976562,-9.066842079162598,-4.177882194519043
1790334785001257500,10.412257568359376,3.0621838569641113,-7.920019149780273,-3.552995204925537
1790334785017717500,10.428717529296875,3.6080620288848877,-6.631938934326172,-2.1954829692840576
1790334785034162200,10.445162109375,3.801992416381836,-6.538564682006836,-3.1220390796661377
1790334785050647300,10.461647216796875,3.794809579849243,-8.403648376464844,-3.7229835987091064
1790334785067073800,10.47807373046875,2.7772738933563232,-7.879317760467529,-2.7988216876983643
1790334785083542000,10.4945419921875,-0.12210428714752197,-9.914389610290527,-5.3582234382629395
1790334785099862500,10.510862548828126,0.08140286058187485,-8.360552787780762,-4.577713489532471
1790334785116330200,10.527330322265625,1.2856862545013428,-10.72602367401123,-5.135562419891357
1790334785132837400,10.54383740234375,1.9249382019042969,-9.940725326538086,-5.114014625549316
1790334785149288400,10.560288330078125,2.8131868839263916,-9.378087997436523,-4.1874589920043945
1790334785165757400,10.57675732421875,3.780444383621216,-7.450755596160889,-3.600879430770874
1790334785182217200,10.59321728515625,3.976768970489502,-6.3063273429870605,-1.4867992401123047
1790334785198683100,10.60968310546875,3.1100680828094482,-8.827422142028809,-3.97916316986084
1790334785215168800,10.626168701171874,3.1531636714935303,-7.242460250854492,-2.6575639247894287
1790334785231609600,10.642609619140625,2.427720546722412,-7.287950038909912,-3.8067808151245117
1790334785248099000,10.65909912109375,0.33039984107017517,-10.979808807373047,-7.754819393157959
1790334785264540000,10.675539794921875,0.5889736413955688,-10.216058731079102,-2.801215887069702
1790334785281005600,10.692005615234375,3.4189200401306152,-7.771578788757324,-3.2537200450897217
1790334785297494000,10.708493896484375,-0.021547814831137657,-11.403582572937012,-5.07570743560791
1790334785313941000,10.72494091796875,2.185906171798706,-10.881647109985352,-7.438784599304199
1790334785330400300,10.741400146484375,0.9002198576927185,-9.279925346374512,-2.31758713722229
1790334785346844200,10.75784423828125,2.3080103397369385,-8.561665534973145,-4.742913722991943
1790334785363316200,10.774316162109375,2.365471363067627,-7.570465564727783,-3.5865142345428467
1790334785379823900,10.790823974609374,3.2561142444610596,-6.957550048828125,-3.8786067962646484
1790334785396282000,10.8072822265625,1.0630255937576294,-11.834539413452148,-4.077325344085693
1790334785412798700,10.823798828125,-0.8858546018600464,-8.880094528198242,-3.383007049560547
1790334785429263000,10.84026318359375,2.008735179901123,-9.84495735168457,-4.065354347229004
1790334785445732600,10.856732666015626,1.2473790645599365,-9.694122314453125,-2.051830768585205
1790334785462238700,10.87323876953125,0.9169792532920837,-9.02135181427002,-2.2146365642547607
1790334785478692900,10.88969287109375,0.9193734526634216,-8.877699851989746,-4.225766181945801
1790334785495190300,10.906190185546874,2.82515811920166,-9.904812812805176,-6.993463039398193
1790334785511652400,10.92265234375,2.5498247146606445,-8.010998725891113,-0.912190854549408
1790334785528096500,10.939096435546874,2.4899697303771973,-8.664615631103516,-2.3558945655822754
1790334785544543500,10.95554345703125,-0.5219359993934631,-8.832210540771484,-0.021547814831137657
1790334785560988000,10.97198779296875,3.509899616241455,-9.832986831665039,-9.588777542114258
1790334785577449200,10.98844921875,2.7916390895843506,-9.892841339111328,-3.2130186557769775
1790334785593891300,11.004891357421876,1.7525556087493896,-8.925583839416504,-0.828393816947937
1790334785610334500,11.02133447265625,2.3367409706115723,-6.497863292694092,-6.411672115325928
1790334785626782200,11.0377822265625,3.4811692237854004,-8.29590892791748,-5.894524574279785
1790334785643234600,11.054234619140624,1.3479355573654175,-10.678139686584473,-5.140350818634033
1790334785659703000,11.070703125,0.6727706789970398,-9.974244117736816,-4.807557106018066
1790334785676145400,11.0871455078125,1.9321208000183105,-8.755595207214355,-7.580042362213135
1790334785692587000,11.1035869140625,1.3934253454208374,-9.619902610778809,-7.9846625328063965
1790334785709038800,11.120038818359374,3.529053211212158,-8.542511940002441,-4.333505153656006
1790334785725481200,11.136481201171875,3.5266590118408203,-6.907271862030029,-6.133944988250732
1790334785741926400,11.152926513671876,-0.40701428055763245,-9.998186111450195,-3.469198226928711
1790334785758370000,11.1693701171875,3.248931646347046,-10.893617630004883,-8.221688270568848
1790334785774812200,11.185812255859375,3.9695863723754883,-11.925518989562988,-8.106766700744629
1790334785791258000,11.202258056640625,1.9967641830444336,-5.856217384338379,-0.24899697303771973
1790334785807702000,11.218701904296875,2.2409727573394775,-6.818686485290527,-7.390900611877441
1790334785824148500,11.2351484375,4.934449672698975,-7.357381820678711,-2.935291290283203
1790334785840590000,11.251590087890625,5.2480902671813965,-7.536946773529053,-3.0095114707946777
1790334785857030700,11.26803076171875,-0.2322375625371933,-11.05402946472168,-5.789179801940918
1790334785873473800,11.284473876953125,4.788403511047363,-6.0190229415893555,-2.9759926795959473
1790334785889860900,11.30086083984375,1.86508309841156,-5.492298603057861,-1.6065093278884888
1790334785906373600,11.31737353515625,5.746084213256836,-6.8043212890625,-2.918531894683838
1790334785922813200,11.333813232421875,4.469974517822266,-9.655815124511719,-3.49314022064209
1790334785939279000,11.350279052734376,4.592078685760498,-8.099584579467773,-2.4420857429504395
1790334785955758300,11.36675830078125,5.027823448181152,-8.525752067565918,-8.513781547546387
1790334785972198100,11.3831982421875,4.32871675491333,-6.09324312210083,-2.2673089504241943
1790334785988642000,11.39964208984375,3.19865345954895,-4.838681697845459,-0.06224924325942993
1790334786005082600,11.41608251953125,0.8523358106613159,-8.683769226074219,-5.975927352905273
1790334786021523200,11.432523193359375,5.104437828063965,-6.088454723358154,-1.3407529592514038
1790334786037974000,11.44897412109375,-3.1076738834381104,-12.265495300292969,-2.6886885166168213
1790334786054417700,11.465417724609376,2.765302896499634,-9.548076629638672,-10.010157585144043
1790334786070780000,11.48177978515625,4.46518611907959,-4.896142482757568,-3.8307228088378906
1790334786087222000,11.498221923828124,2.5522189140319824,-7.297526836395264,-6.722918510437012
1790334786103522000,11.51452197265625,3.7612907886505127,-5.521028995513916,-0.47884035110473633
1790334786119973600,11.5309736328125,0.4668693244457245,-11.15697956085205,-6.007051944732666
1790334786136421400,11.54742138671875,2.542642116546631,-12.023680686950684,-5.355829238891602
1790334786152874500,11.56387451171875,3.4596214294433594,-8.801085472106934,-7.601590633392334
1790334786169333500,11.58033349609375,3.7852327823638916,-6.564900875091553,-6.069301128387451
1790334786185773800,11.59677392578125,4.881777286529541,-7.144298076629639,-8.250418663024902
1790334786202230500,11.61323046875,1.036689281463623,-7.7883381843566895,-2.5977089405059814
1790334786218666500,11.62966650390625,7.747636795043945,-8.197746276855469,-2.540247917175293
1790334786235104300,11.646104248046875,-0.2346317619085312,-12.624625205993652,-5.513846397399902
1790334786251559200,11.66255908203125,-0.9696516990661621,-11.714828491210938,-6.689399719238281
1790334786267996700,11.67899658203125,1.6376339197158813,-10.759542465209961,-0.07182604819536209
1790334786284439300,11.695439208984375,4.062960147857666,-6.095637321472168,-3.598485231399536
1790334786300875500,11.71187548828125,3.1220390796661377,-5.276820659637451,2.0159177780151367
1790334786317329400,11.728329345703125,2.274491548538208,-9.526528358459473,-4.898536682128906
1790334786333764600,11.7447646484375,3.603273630142212,-6.404489517211914,0.706289529800415
1790334786350199800,11.76119970703125,0.8451532125473022,-11.432312965393066,-8.944737434387207
1790334786366643200,11.777643310546875,-0.15083470940589905,-9.86889934539795,-7.929595947265625
1790334786383090000,11.79408984375,4.623203277587891,-7.817068576812744,-9.016563415527344
1790334786399533800,11.810533935546875,4.2544965744018555,-5.9304375648498535,0.13407529890537262
1790334786415973000,11.82697314453125,3.9049429893493652,-5.185841083526611,1.9321208000183105
1790334786432408000,11.843407958984375,5.2049946784973145,-5.5114521980285645,2.6360161304473877
1790334786448865800,11.85986572265625,5.458779811859131,-8.403648376464844,-6.268020153045654
1790334786465302800,11.876302734375,-0.11252748221158981,-10.347740173339844,0.2106897532939911
1790334786481740500,11.892740478515625,-0.3064578175544739,-10.884040832519531,-6.447585105895996
1790334786498196700,11.90919677734375,4.525041103363037,-7.955932140350342,-8.702922821044922
1790334786514631700,11.925631591796876,1.9033904075622559,-8.662221908569336,-10.453084945678711
1790334786531071700,11.94207177734375,4.125209331512451,-5.238513469696045,1.6903064250946045
1790334786547505000,11.9585048828125,-0.9289502501487732,-9.421183586120605,-3.5745432376861572
1790334786563956700,11.974956787109376,6.5265936851501465,-10.1753568649292,-5.2672438621521
1790334786580390700,11.991390625,0.23942017555236816,-11.329362869262695,-8.250418663024902
1790334786596825300,12.007825439453125,5.52821159362793,-10.141838073730469,-6.481103897094727
1790334786613283300,12.024283447265624,4.671087741851807,-7.7213006019592285,-9.947908401489258
1790334786629727200,12.040727294921876,4.084507942199707,-5.805939197540283,-4.0294413566589355
1790334786646176000,12.057176025390625,4.369418144226074,-5.013458251953125,-0.6847416758537292
1790334786662611500,12.073611572265625,-0.993593692779541,-8.17141056060791,-3.7852327823638916
1790334786679050200,12.09005029296875,3.157952070236206,-5.506663799285889,1.1468225717544556
1790334786695505200,12.106505126953126,3.821146011352539,-14.223952293395996,-6.44279670715332
1790334786711942700,12.122942626953124,-1.5969325304031372,-10.457873344421387,-6.931213855743408
1790334786728381000,12.139380859375,2.985569477081299,-7.910442352294922,-6.48828649520874
1790334786744816400,12.15581640625,5.382165431976318,-7.146692276000977,-8.413225173950195
1790334786761254100,12.172254150390625,4.355052947998047,-8.348581314086914,-9.265560150146484
1790334786777692000,12.18869189453125,0.5554547905921936,-6.356605529785156,1.4772224426269531
1790334786794131200,12.205131103515624,4.841075897216797,-7.5968017578125,-0.42377370595932007
1790334786810585600,12.221585693359375,4.508281707763672,-14.877569198608398,-9.787496566772461
1790334786827024400,12.2380244140625,6.2201361656188965,-9.3828763961792,-3.9695863723754883
1790334786843462700,12.254462646484376,5.365406036376953,-13.26866626739502,-6.428431510925293
1790334786859915000,12.2709150390625,1.3886369466781616,-7.637503623962402,-10.56800651550293
1790334786876409000,12.2874091796875,6.440402507781982,-5.5545477867126465,-5.789179801940918
1790334786892745500,12.303745361328126,4.812345504760742,-5.762843608856201,1.9297266006469727
1790334786909184500,12.3201845703125,3.141192674636841,-5.932831764221191,3.2154128551483154
1790334786925624300,12.336624267578125,2.80361008644104,-6.888118267059326,1.3479355573654175
1790334786942084600,12.353084716796875,4.7405195236206055,-8.722076416015625,-7.0126166343688965
1790334786958525700,12.369525634765624,3.751713991165161,-12.227188110351562,-1.4221558570861816
1790334786974971400,12.385971435546875,-4.663905143737793,-6.813898086547852,-9.423578262329102
1790334786991410200,12.40241015625,5.638344764709473,-7.201758861541748,-9.500192642211914
1790334787007849700,12.418849609375,-2.346317768096924,-7.750030994415283,-9.679757118225098
1790334787024295000,12.435294921875,4.910507678985596,-6.356605529785156,0.751779317855835
1790334787040737000,12.451737060546876,-0.5123591423034668,-9.016563415527344,-1.3263877630233765
1790334787057243400,12.468243408203126,5.2265424728393555,-8.99740982055664,-1.9584569931030273
1790334787073682200,12.48468212890625,1.7573440074920654,-12.06198787689209,-4.869806289672852
1790334787090064400,12.501064453125,5.851428985595703,-11.104307174682617,-3.758896589279175
1790334787106502100,12.517502197265625,0.6607996821403503,-8.281543731689453,-1.525106430053711
1790334787122911000,12.533910888671874,-0.2801215946674347,-5.805939197540283,-9.17936897277832
1790334787139349200,12.550349365234375,8.47547435760498,-6.866570472717285,-4.824316501617432
1790334787155786000,12.566785888671875,3.5003228187561035,-6.179434776306152,1.9704279899597168
1790334787172221700,12.5832216796875,6.189011573791504,-4.817133903503418,-2.9544448852539062
1790334787188667600,12.599667724609375,6.512228488922119,-13.189657211303711,-9.50737476348877
1790334787205107000,12.61610693359375,4.639962673187256,-8.346187591552734,-7.259219646453857
1790334787221546500,12.63254638671875,4.20421838760376,-12.222399711608887,-0.15801730751991272
1790334787237983000,12.64898291015625,-0.5530605912208557,-8.956708908081055,-7.881711959838867
1790334787254420500,12.66542041015625,3.2393548488616943,-8.087613105773926,1.3838485479354858
1790334787270859800,12.68185986328125,4.8051629066467285,-6.641515731811523,-5.659893035888672
1790334787287296300,12.698296142578124,4.2090067863464355,-3.907337188720703,0.8690952062606812
1790334787303748400,12.714748291015624,1.5394717454910278,-10.491392135620117,-1.094150185585022
1790334787320184800,12.731184814453124,5.130774021148682,-4.412513732910156,-0.29209262132644653
1790334787336620800,12.747620849609374,3.8977603912353516,-10.90558910369873,-0.7781155705451965
1790334787353055200,12.76405517578125,-2.5282769203186035,-10.699687004089355,-1.292868971824646
1790334787369495600,12.78049560546875,5.092466831207275,-8.923190116882324,1.2282254695892334
1790334787385931800,12.796931884765625,-0.5147533416748047,-7.513004779815674,-10.316615104675293
1790334787402368300,12.8133681640625,7.9176249504089355,-5.568912982940674,-7.225700855255127
1790334787418801200,12.82980126953125,3.0861260890960693,-9.162610054016113,-11.559206008911133
1790334787435252500,12.84625244140625,6.308721542358398,-5.16429328918457,3.8786067962646484
1790334787451695400,12.8626953125,3.220201253890991,-10.81460952758789,-1.4317326545715332
1790334787468129500,12.879129638671875,5.992686748504639,-7.836222171783447,1.0630255937576294
1790334787484564000,12.89556396484375,7.271190643310547,-11.741165161132812,-6.026205539703369
1790334787500999700,12.911999755859375,4.19224739074707,-7.333439826965332,-2.655169725418091
1790334787517436200,12.928436279296875,2.2218191623687744,-9.327810287475586,-2.0853497982025146
1790334787533875700,12.944875732421876,-0.6655880808830261,-8.611943244934082,-9.648633003234863
1790334787550329000,12.9613291015625,1.9991583824157715,-5.161899089813232,-7.161057472229004
1790334787566766300,12.977766357421874,-4.608838081359863,-9.488221168518066,-11.710040092468262
1790334787583204400,12.994204345703125,2.75812029838562,-4.553771495819092,-5.875370979309082
1790334787599640800,13.010640869140625,1.9943699836730957,-9.390059471130371,-0.608127236366272
1790334787616086000,13.0270859375,2.8347349166870117,-5.284003257751465,1.764526605606079
1790334787632528000,13.04352783203125,2.8562827110290527,-14.470555305480957,-3.77565598487854
1790334787648966700,13.059966552734375,4.592078685760498,-10.41956615447998,-6.471527099609375
1790334787665404400,13.076404296875,2.188300371170044,-11.367670059204102,-2.2026655673980713
1790334787681857800,13.09285791015625,-2.3056161403656006,-9.674968719482422,-10.065223693847656
1790334787698294800,13.109294677734376,1.6376339197158813,-8.983044624328613,-3.002328872680664
1790334787714732800,13.12573291015625,-1.9991583824157715,-7.378929615020752,-8.427590370178223
1790334787731170300,13.14217041015625,4.388571739196777,-6.478709697723389,-5.817910194396973
1790334787747607600,13.158607666015625,-1.2210428714752197,-8.106766700744629,-7.589619159698486
1790334787764044800,13.175044921875,5.365406036376953,-4.9152960777282715,-5.609614372253418
1790334787780482000,13.19148193359375,5.188235282897949,-5.2480902671813965,2.7030537128448486
1790334787796924400,13.20792431640625,4.23773717880249,-5.43723201751709,2.497152328491211
1790334787813359400,13.224359375,6.97430944442749,-6.3518171310424805,-1.8555063009262085
1790334787829794800,13.240794921875,2.7030537128448486,-6.143521785736084,-1.889025092124939
1790334787846229500,13.2572294921875,5.853823184967041,-12.880805015563965,-9.220070838928223
1790334787862672600,13.273672607421876,4.153939723968506,-17.207128524780273,-9.045293807983398
1790334787879110700,13.290110595703124,2.1068975925445557,-9.421183586120605,-3.6128504276275635
1790334787895545600,13.306545654296874,-0.12210428714752197,-8.841787338256836,-8.987833023071289
1790334787911982300,13.322982421875,3.337517261505127,-7.017405033111572,-5.2265424728393555
1790334787928427800,13.339427734375,0.9002198576927185,-5.260061264038086,-9.524134635925293
1790334787944866300,13.3558662109375,6.840234279632568,-6.258443355560303,-8.075642585754395
1790334787961303800,13.3723037109375,3.9432501792907715,-5.2672438621521,-2.011129379272461
1790334787977744100,13.388744140625,7.347805023193359,-5.846640586853027,-2.801215887069702
1790334787994182700,13.4051826171875,7.089231014251709,-7.702147006988525,-5.446808815002441
1790334788010622200,13.421622314453124,7.3238630294799805,-4.733336925506592,1.6903064250946045
1790334788027059200,13.43805908203125,6.550535678863525,-14.319720268249512,-5.080495834350586
1790334788043509200,13.45450927734375,-4.680664539337158,-7.965508937835693,-7.398083209991455
1790334788059948500,13.470948486328124,6.016628742218018,-14.386757850646973,-3.184288263320923
1790334788076403000,13.48740283203125,-0.9744400978088379,-9.425971984863281,1.0079588890075684
1790334788092812300,13.503812255859375,0.8020575642585754,-9.818621635437012,-4.017470359802246
1790334788109258200,13.52025830078125,1.6687586307525635,-9.828198432922363,-9.720458984375
1790334788125734400,13.536734375,4.311957359313965,-3.509899616241455,-2.2170307636260986
1790334788142171100,13.553171142578124,2.2577321529388428,-6.521805286407471,-8.221688270568848
1790334788158605600,13.56960546875,0.12928688526153564,-6.926425457000732,-1.7286136150360107
1790334788174921500,13.58592138671875,5.767632007598877,-9.006986618041992,-2.736572504043579
1790334788191408600,13.60240869140625,6.7923502922058105,-3.869029998779297,-0.4668693244457245
1790334788207846100,13.61884619140625,3.4524388313293457,-12.090718269348145,-1.256955862045288
1790334788224280600,13.635280517578124,7.668628215789795,-5.39174222946167,1.1563993692398071
1790334788240714800,13.65171484375,5.827486991882324,-7.103596210479736,-1.3551181554794312
1790334788257151500,13.6681513671875,-2.3942017555236816,-7.144298076629639,0.24181437492370605
1790334788273585700,13.684585693359375,5.710171222686768,-12.394782066345215,-8.987833023071289
1790334788290038800,13.701038818359375,5.106832027435303,-8.145073890686035,-4.441244125366211
1790334788306478000,13.71747802734375,4.388571739196777,-16.139312744140625,-5.983109951019287
1790334788322916400,13.733916259765625,3.177105665206909,-6.787561893463135,-0.6177040338516235
1790334788339355100,13.750355224609375,3.4811692237854004,-7.0772600173950195,-3.799597978591919
1790334788355800000,13.766800048828125,-5.0254292488098145,-7.364564418792725,-8.80587387084961
1790334788372241000,13.783240966796875,2.319981336593628,-6.564900875091553,-1.8339585065841675
1790334788388678000,13.799677978515625,1.8124107122421265,-11.097125053405762,-8.925583839416504
1790334788405113900,13.81611376953125,3.335123062133789,-8.250418663024902,-5.640739440917969
1790334788421556500,13.832556396484375,2.5546131134033203,-6.339846134185791,-8.355764389038086
1790334788437994500,13.848994384765625,3.73016619682312,-8.085219383239746,-4.395754337310791
1790334788454433300,13.865433349609376,4.7620673179626465,-7.5201873779296875,-5.623979568481445
1790334788470871000,13.88187109375,6.294356346130371,-4.175487995147705,-4.865017890930176
1790334788487308800,13.898308837890625,-0.6536170840263367,-5.815515995025635,-8.707711219787598
1790334788503747000,13.9147470703125,6.48828649520874,-3.2992098331451416,-0.48602294921875
1790334788520184000,13.93118408203125,4.857835292816162,-8.525752067565918,-2.7317841053009033
1790334788536634600,13.947634521484375,5.389348030090332,-4.867412090301514,-3.6296098232269287
1790334788553073200,13.9640732421875,1.0127472877502441,-5.427655220031738,-7.592013359069824
1790334788569508900,13.9805087890625,3.8594532012939453,-5.477933406829834,-5.039794445037842
1790334788585947100,13.996947021484376,0.5985504388809204,-12.650961875915527,-3.799597978591919
1790334788602386700,14.01338671875,1.0007762908935547,-6.63433313369751,-0.6871358752250671
1790334788618821400,14.0298212890625,4.338293552398682,-8.214506149291992,-8.949525833129883
1790334788635252700,14.046252685546875,6.110002517700195,-6.270414352416992,0.31124621629714966
1790334788651684000,14.06268408203125,-1.7836803197860718,-10.089165687561035,-3.488351821899414
1790334788668125400,14.07912548828125,3.248931646347046,-6.098031520843506,-0.8475474119186401
1790334788684560100,14.09556005859375,5.942408561706543,-9.77791976928711,-8.927978515625
1790334788701000000,14.112,3.485957622528076,-6.064512729644775,-2.6240451335906982
1790334788717435600,14.128435546875,5.102043628692627,-12.591106414794922,-9.445125579833984
1790334788733869600,14.14486962890625,2.4851813316345215,-7.888894557952881,1.9393033981323242
1790334788750305500,14.161305419921876,1.7980455160140991,-6.631938934326172,-7.608773231506348
1790334788766739500,14.177739501953125,-0.18914192914962769,-12.684480667114258,-10.673351287841797
1790334788783186200,14.194186279296876,3.1531636714935303,-8.018181800842285,-2.6862943172454834
1790334788799622400,14.210622314453126,4.541800498962402,-5.863399982452393,-3.1747114658355713
1790334788816056600,14.227056640625,3.7708675861358643,-8.746018409729004,-6.916848659515381
1790334788832511000,14.243510986328126,-1.4484920501708984,-6.497863292694092,-9.2033109664917
1790334788848950300,14.2599501953125,2.118868589401245,-5.7341132164001465,0.038307227194309235
1790334788865391900,14.276391845703126,2.300827741622925,-7.94635534286499,-8.834604263305664
1790334788881823200,14.2928232421875,5.841852188110352,-7.053318023681641,-4.3191399574279785
1790334788898130000,14.3091298828125,1.070208191871643,-9.519346237182617,-10.02691650390625
1790334788914447000,14.325447021484376,4.8937482833862305,-7.204153060913086,-9.064447402954102
1790334788930886400,14.341886474609375,5.892130374908447,-6.885724067687988,-3.5625722408294678
1790334788947329800,14.358329833984374,7.4770917892456055,-4.144362926483154,-3.5410242080688477
1790334788963763500,14.374763427734376,1.414973258972168,-13.807361602783203,-7.501033782958984
1790334788980197400,14.391197265625,3.1723172664642334,-8.183381080627441,0.08858546614646912
1790334788996640000,14.407639892578125,4.302380561828613,-8.667010307312012,-3.5434184074401855
1790334789013075700,14.42407568359375,7.067683219909668,-4.771644115447998,0.05267243832349777
1790334789029537800,14.440537841796875,2.676717519760132,-11.532869338989258,-4.381389141082764
1790334789045973200,14.45697314453125,6.670246124267578,-4.704606533050537,-4.175487995147705
1790334789062409000,14.473408935546875,4.874594688415527,-9.478644371032715,-2.1571757793426514
1790334789078905300,14.4899052734375,-0.3926490843296051,-6.090848922729492,2.827552318572998
1790334789095169000,14.5061689453125,6.323086738586426,-9.588777542114258,-4.491522312164307
1790334789111535400,14.522535400390625,5.264849662780762,-7.927201747894287,-1.482010841369629
1790334789127971600,14.5389716796875,5.657498836517334,-15.684414863586426,-8.17380428314209
1790334789144406000,14.555406005859375,5.228936672210693,-7.886500358581543,1.2545616626739502
1790334789160901400,14.5719013671875,4.843470096588135,-10.84094524383545,-7.151480674743652
1790334789177338600,14.588338623046875,2.0039467811584473,-10.596736907958984,-4.326322555541992
1790334789193781500,14.604781494140624,4.23773717880249,-6.287173748016357,-5.8442463874816895
1790334789210216000,14.6212158203125,-2.4444799423217773,-8.26239013671875,-10.685321807861328
1790334789226652400,14.63765234375,5.523423194885254,-13.060370445251465,-4.264073371887207
1790334789243094500,14.654094482421876,-4.129997730255127,-12.840104103088379,-10.216058731079102
1790334789259530500,14.670530517578126,3.9815573692321777,-5.446808815002441,-1.7812861204147339
1790334789275983600,14.686983642578125,-1.5658079385757446,-6.138733386993408,-6.768408298492432
1790334789292417800,14.703417724609375,3.8977603912353516,-6.801927089691162,-4.584896087646484
1790334789308853800,14.719853759765625,-3.268085241317749,-6.246472358703613,-14.319720268249512
1790334789325298400,14.73629833984375,3.7158010005950928,-4.5154643058776855,-2.056619167327881
1790334789341739300,14.7527392578125,2.58813214302063,-9.282320022583008,-5.298368453979492
1790334789358187800,14.769187744140625,-1.0965443849563599,-5.858611583709717,-6.763619899749756
1790334789374620400,14.785620361328125,9.02135181427002,-8.712499618530273,-4.333505153656006
1790334789391053300,14.80205322265625,3.713406801223755,-7.218518257141113,1.115697979927063
1790334789407511000,14.818510986328125,5.8442463874816895,-6.5696892738342285,-3.1890766620635986
1790334789423945500,14.834945556640625,6.375759124755859,-2.779668092727661,-2.3487119674682617
1790334789440387000,14.851386962890626,0.8690952062606812,-11.456254959106445,-6.598419666290283
1790334789456823800,14.86782373046875,4.881777286529541,-4.508281707763672,-1.4413094520568848
1790334789473259000,14.884259033203126,4.2951979637146,-7.445967197418213,-3.0621838569641113
1790334789489702100,14.9007021484375,7.9415669441223145,-5.963956356048584,-0.20350714027881622
1790334789506132500,14.917132568359374,0.08379705995321274,-8.736441612243652,0.8092401623725891
1790334789522585000,14.933585205078124,6.150704383850098,-8.820239067077637,-2.0374655723571777
1790334789539018800,14.950018798828125,4.51067590713501,-7.747636795043945,-4.7836151123046875
1790334789555453700,14.96645361328125,6.588842868804932,-5.195417881011963,-5.432443618774414
1790334789571889400,14.982889404296875,4.23773717880249,-10.776301383972168,-9.99339771270752
1790334789588326000,14.999325927734375,0.9385270476341248,-8.59997272491455,-2.7964274883270264
1790334789604781000,15.015781005859376,0.7374141216278076,-8.789113998413086,-8.04930591583252
1790334789621214200,15.032214111328125,0.7326257228851318,-7.560888767242432,-7.070077419281006
1790334789637648100,15.048648193359375,-1.158793568611145,-17.12572479248047,-5.207388877868652
1790334789654100500,15.0651005859375,2.1068975925445557,-18.21748161315918,-5.04218864440918
1790334789670535400,15.081535400390624,-6.071695327758789,-4.424484729766846,-5.829881191253662
1790334789686981400,15.0979814453125,5.4228668212890625,-8.346187591552734,-7.376535415649414
1790334789703414500,15.11441455078125,3.3063924312591553,-7.304709434509277,-3.318363666534424
1790334789719846000,15.130845947265625,2.140416383743286,-11.911153793334961,-0.7613561153411865
1790334789736288500,15.14728857421875,0.5793967843055725,-11.470620155334473,-4.010287761688232
1790334789752721700,15.1637216796875,2.892195701599121,-13.974955558776855,-11.475408554077148
1790334789769173800,15.180173828125,3.28963303565979,-5.705382823944092,-0.1149216815829277
1790334789785610000,15.19660986328125,3.6343982219696045,-11.295844078063965,-5.705382823944092
1790334789802049800,15.2130498046875,3.466804027557373,-8.973467826843262,-10.093954086303711
1790334789818499300,15.229499267578126,-0.15562310814857483,-4.402936935424805,-8.185775756835938
1790334789834942000,15.24594189453125,2.583343744277954,-3.950432777404785,-4.106055736541748
1790334789851387400,15.262387451171875,2.537853717803955,-7.673416614532471,-5.351040840148926
1790334789867820800,15.27882080078125,1.8722656965255737,-4.649539470672607,-3.201047658920288
1790334789884254200,15.295254150390624,-0.5985504388809204,-8.161833763122559,-10.407594680786133
1790334789900640500,15.311640625,6.66785192489624,-6.8043212890625,-6.797138690948486
1790334789917073700,15.32807373046875,-0.8451532125473022,-7.824251174926758,-5.178658485412598
1790334789933516300,15.344516357421876,9.011775016784668,-5.264849662780762,-4.125209331512451
1790334789949948000,15.360947998046875,6.648698329925537,-7.304709434509277,-4.766855716705322
1790334789966322400,15.377322509765625,3.3686418533325195,-6.672640323638916,-1.5275006294250488
1790334789982781400,15.393781494140624,1.7621324062347412,-10.290278434753418,-2.161964178085327
1790334789999210800,15.410210693359375,7.424419403076172,-5.808333396911621,-2.6623523235321045
1790334790015668000,15.42666796875,3.114856481552124,-11.080365180969238,-4.620809078216553
1790334790032098000,15.44309814453125,7.443572998046875,-4.752490520477295,-4.8267107009887695
1790334790048529700,15.45952978515625,3.7158010005950928,-9.119514465332031,-6.624756336212158
1790334790064973800,15.475973876953125,8.307879447937012,-3.794809579849243,1.173158884048462
1790334790081476000,15.49247607421875,6.7277069091796875,-10.201693534851074,-1.3910311460494995
1790334790097919000,15.5089189453125,5.434837818145752,-7.132327079772949,2.0661959648132324
1790334790114353400,15.525353515625,6.981492042541504,-11.568782806396484,-1.9800047874450684
1790334790130786800,15.541786865234375,11.619060516357422,-5.552153587341309,-1.8818424940109253
1790334790147244800,15.558244873046876,7.762001991271973,-10.340557098388672,-4.733336925506592
1790334790163675400,15.57467529296875,8.355764389038086,-6.303933143615723,1.3958195447921753
1790334790180121600,15.59112158203125,5.640739440917969,-10.539276123046875,-5.899312973022461
1790334790196553000,15.607552978515624,6.102819919586182,-9.210494041442871,0.7374141216278076
1790334790212982800,15.623982666015625,3.35667085647583,-10.366893768310547,-2.1954829692840576
1790334790229424400,15.64042431640625,4.527435302734375,-9.172186851501465,-5.238513469696045
1790334790245855200,15.656855224609375,3.4763808250427246,-6.5265936851501465,-5.686229228973389
1790334790262309600,15.6733095703125,4.4939165115356445,-6.694188117980957,-4.240131378173828
1790334790278739200,15.6897392578125,2.631227731704712,-12.373234748840332,-3.3518824577331543
1790334790295170300,15.70617041015625,0.7230489253997803,-5.568912982940674,-0.9648633003234863
1790334790311609900,15.72260986328125,7.132327079772949,-10.644620895385742,-6.279991149902344
1790334790328044300,15.739044189453125,3.222595453262329,-11.97100830078125,-7.99184513092041
1790334790344481000,15.75548095703125,-2.631227731704712,-6.366182327270508,-4.285621166229248
1790334790360911400,15.771911376953126,0.7541735172271729,-11.135432243347168,-6.375759124755859
1790334790377343500,15.788343505859375,4.350264549255371,-8.999804496765137,-5.355829238891602
1790334790393800400,15.804800537109376,-3.2848446369171143,-11.166556358337402,-6.028599739074707
1790334790410233300,15.8212333984375,7.058106422424316,-8.17141056060791,-5.128379821777344
1790334790426721500,15.837721435546875,5.975927352905273,-10.527304649353027,-5.614402770996094
1790334790443151600,15.854151611328126,5.193023681640625,-10.192116737365723,-3.663128614425659
1790334790459581700,15.870581787109375,8.868123054504395,-7.441178798675537,0.9552865028381348
1790334790476018000,15.887017822265625,6.988674640655518,-8.47786808013916,-4.879383087158203
1790334790492449300,15.90344921875,1.7908629179000854,-7.570465564727783,-6.22731876373291
1790334790508906000,15.919906005859374,5.236119270324707,-10.053253173828125,-4.9152960777282715
1790334790525337300,15.93633740234375,3.780444383621216,-7.68538761138916,-6.246472358703613
1790334790541767000,15.952766845703126,4.182670593261719,-7.316680431365967,-1.656787633895874
1790334790558211000,15.969211181640626,0.07661445438861847,-12.078747749328613,-4.3861775398254395
1790334790574647300,15.985647216796876,3.1052796840667725,-10.424354553222656,-6.485892295837402
1790334790591082800,16.002082763671876,0.8403648138046265,-11.168951034545898,-2.3104045391082764
1790334790607514000,16.01851416015625,4.8937482833862305,-7.920019149780273,-4.786009311676025
1790334790623945500,16.034945556640626,7.982268333435059,-6.648698329925537,-4.527435302734375
1790334790640401400,16.0514013671875,6.703764915466309,-10.488997459411621,-7.053318023681641
1790334790656834800,16.067834716796874,7.29034423828125,-8.26239013671875,-1.316810965538025
1790334790673266700,16.0842666015625,2.434903144836426,-9.646238327026367,-1.8148049116134644
1790334790689700900,16.100700927734376,4.69024133682251,-8.288725852966309,-2.43011474609375
1790334790706136300,16.11713623046875,1.41257905960083,-5.932831764221191,-4.532223701477051
1790334790722591000,16.133591064453125,6.98628044128418,-6.1985883712768555,-0.8858546018600464
1790334790739021800,16.150021728515625,2.8802247047424316,-8.695740699768066,-2.698265314102173
1790334790755469800,16.1664697265625,5.504269599914551,-6.172252178192139,-2.736572504043579
1790334790771902200,16.182902099609375,2.6431987285614014,-11.535264015197754,-9.41400146484375
1790334790788333300,16.199333251953124,4.965574264526367,-6.385335922241211,-1.359906554222107
1790334790804767000,16.21576708984375,3.866635799407959,-9.138668060302734,-4.20421838760376
1790334790821211400,16.23221142578125,6.074089527130127,-4.383783340454102,-5.214571475982666
1790334790837648000,16.24864794921875,1.900996208190918,-10.007762908935547,-7.264008045196533
1790334790854084400,16.26508447265625,5.324704647064209,-5.779603004455566,-5.197812080383301
1790334790870520000,16.28152001953125,-1.0031704902648926,-12.18648624420166,-6.7061591148376465
1790334790886968600,16.297968505859377,3.177105665206909,-7.493851184844971,-2.008735179901123
1790334790903401500,16.3144013671875,2.049436569213867,-8.327033042907715,-9.86650562286377
1790334790919837200,16.330837158203124,4.671087741851807,-6.447585105895996,-1.3287819623947144
1790334790936289800,16.347289794921874,1.8555063009262085,-12.327744483947754,-9.354146003723145
1790334790952760300,16.36376025390625,0.9888052940368652,-9.334992408752441,-5.3797712326049805
1790334790969220600,16.380220703125,0.6512228846549988,-11.681309700012207,-8.724471092224121
1790334790985655300,16.3966552734375,3.3662476539611816,-8.662221908569336,-3.466804027557373
1790334791002108000,16.41310791015625,3.375824451446533,-12.627019882202148,-4.898536682128906
1790334791018540800,16.429540771484376,-1.2449848651885986,-8.329427719116211,-3.0310592651367188
1790334791034974500,16.445974365234374,4.027047157287598,-8.767566680908203,-8.528146743774414
1790334791051413200,16.462413330078125,3.5027170181274414,-11.793837547302246,-9.004592895507812
1790334791067872300,16.478872314453124,6.5481414794921875,-5.439626216888428,-1.2737152576446533
1790334791084284700,16.49528466796875,1.2090718746185303,-6.593631267547607,-3.9671921730041504
1790334791100738800,16.51173876953125,5.92325496673584,-7.829039573669434,-0.5985504388809204
1790334791117174300,16.52817431640625,2.0901381969451904,-10.163386344909668,-6.801927089691162
1790334791133675300,16.54467529296875,8.147468566894531,-6.007051944732666,-4.522646903991699
1790334791150122000,16.5611220703125,5.157110691070557,-6.789956092834473,-2.75812029838562
1790334791165588500,16.57658837890625,6.167463779449463,-5.298368453979492,-4.565742492675781
1790334791182020900,16.593020751953127,-1.0319008827209473,-7.548917770385742,-4.754884719848633
1790334791198454500,16.60945458984375,4.517858505249023,-8.779537200927734,-2.717418909072876
1790334791214887400,16.625887451171874,1.6041151285171509,-8.078036308288574,-4.271255970001221
1790334791231321900,16.64232177734375,5.288791656494141,-6.102819919586182,0.2537853717803955
1790334791247762700,16.6587626953125,-3.294421434402466,-9.84495735168457,-9.86889934539795
1790334791264198000,16.675197998046876,6.48828649520874,-10.436325073242188,-6.392518520355225
1790334791280633900,16.6916337890625,4.738125324249268,-9.17936897277832,-1.4317326545715332
1790334791297094700,16.7080947265625,3.0861260890960693,-7.608773231506348,-2.33913516998291
1790334791313536000,16.724535888671873,0.23702596127986908,-13.716381072998047,-4.592078685760498
1790334791329971200,16.74097119140625,3.3279404640197754,-3.421314239501953,-4.987122058868408
1790334791346407700,16.75740771484375,5.571307182312012,-6.7923502922058105,-3.6080620288848877
1790334791362845200,16.77384521484375,3.665522813796997,-10.055646896362305,-2.535459518432617
1790334791379303200,16.79030322265625,3.8594532012939453,-9.320627212524414,-2.765302896499634
1790334791395754200,16.806754150390624,2.011129379272461,-11.461043357849121,-3.270479440689087
1790334791412187400,16.8231875,10.366893768310547,-5.834669589996338,-5.57370138168335
1790334791428622600,16.83962255859375,4.955997467041016,-7.252037048339844,-2.27209734916687
1790334791445078000,16.856078125,3.974374771118164,-8.066065788269043,-1.2282254695892334
1790334791461544700,16.872544677734375,2.4396915435791016,-7.694964408874512,-6.054935932159424
1790334791477978400,16.888978271484376,5.080495834350586,-4.015076160430908,-5.604825973510742
1790334791494432000,16.905431884765626,-4.201824188232422,-8.573636054992676,-8.865729331970215
1790334791510866700,16.92186669921875,4.661510944366455,-11.686098098754883,-5.166687488555908
1790334791527300000,16.938300048828125,1.9991583824157715,-11.477803230285645,-0.6488286852836609
1790334791543740000,16.954739990234376,4.017470359802246,-6.327875137329102,-2.9161376953125
1790334791560182300,16.971182373046876,-1.070208191871643,-9.169792175292969,-4.010287761688232
1790334791576668200,16.987668212890625,3.2417490482330322,-7.417236804962158,-4.63517427444458
1790334791593107500,17.004107421875,3.2417490482330322,-8.549694061279297,-2.911349296569824
1790334791609544400,17.02054443359375,4.745307922363281,-8.810662269592285,-2.5330653190612793
1790334791626001000,17.0370009765625,5.698200225830078,-7.4770917892456055,-1.556231141090393
1790334791642436000,17.05343603515625,4.702212333679199,-8.147468566894531,-3.9671921730041504
1790334791658882000,17.069882080078123,8.678980827331543,-5.829881191253662,-4.163516521453857
1790334791675317200,17.086317138671873,1.9297266006469727,-8.324639320373535,-3.9839515686035156
1790334791691775000,17.10277490234375,3.3877954483032227,-8.664615631103516,-1.015141487121582
1790334791708242700,17.11924267578125,0.9744400978088379,-9.770736694335938,-6.801927089691162
1790334791724677000,17.135677001953123,4.570530891418457,-4.8937482833862305,-0.9528923034667969
1790334791741134600,17.152134521484374,4.05817174911499,-6.9240312576293945,-7.453149795532227
1790334791757571000,17.168571044921876,2.985569477081299,-10.493785858154297,-4.489128112792969
1790334791774005800,17.185005859375,5.631162166595459,-7.987056732177734,-0.6991068720817566
1790334791790440000,17.20143994140625,7.010222434997559,-9.526528358459473,-4.501099109649658
1790334791806883000,17.217883056640623,4.975151062011719,-11.30302619934082,-2.2888567447662354
1790334791823320300,17.2343203125,0.48602294921875,-8.04930591583252,-6.2392897605896
1790334791839757600,17.250757568359376,4.754884719848633,-7.06528902053833,-1.1899182796478271
1790334791856198100,17.2671982421875,1.886630892753601,-8.80587387084961,-6.121973514556885
1790334791872660000,17.283659912109375,9.3828763961792,-7.5968017578125,-8.123526573181152
1790334791889096400,17.300096435546877,4.015076160430908,-8.274360656738281,-1.2689268589019775
1790334791905536300,17.316536376953124,8.078036308288574,-6.440402507781982,-4.242525577545166
1790334791921969400,17.332969482421873,3.272873640060425,-9.516951560974121,-6.3063273429870605
1790334791938342400,17.34934228515625,2.5737667083740234,-9.119514465332031,-3.2632968425750732
1790334791954792400,17.36579248046875,3.3279404640197754,-8.453926086425781,-5.3127336502075195
1790334791971224000,17.38222412109375,4.716577529907227,-6.596025466918945,-1.2761094570159912
1790334791987673600,17.398673583984376,3.1292216777801514,-8.616731643676758,-6.890512466430664
1790334792004103000,17.41510302734375,1.9632453918457031,-9.648633003234863,-6.236895561218262
1790334792020535600,17.43153564453125,4.10366153717041,-5.7341132164001465,-1.314416766166687
1790334792036978700,17.447978759765626,6.399701118469238,-8.537723541259766,-3.3016040325164795
1790334792053419300,17.464419189453125,3.8810009956359863,-8.274360656738281,-2.298433542251587
1790334792069896200,17.480896240234376,1.5203180313110352,-9.351752281188965,-5.439626216888428
1790334792086330000,17.497330078125,5.894524574279785,-8.29590892791748,-5.056553840637207
1790334792102762800,17.5137626953125,6.248866558074951,-6.66785192489624,-4.120420932769775
1790334792119214000,17.530214111328124,8.7484130859375,-7.6566572189331055,-7.649474620819092
1790334792135650000,17.546650146484374,3.071760892868042,-9.801861763000488,-2.5019407272338867
1790334792152138000,17.563137939453124,5.679046630859375,-8.324639320373535,-4.924872875213623
1790334792168574700,17.57957470703125,2.5330653190612793,-8.813055992126465,-6.481103897094727
1790334792185012000,17.596011962890625,2.1954829692840576,-5.003881454467773,-1.9728221893310547
1790334792201454600,17.61245458984375,3.203441858291626,-8.678980827331543,-7.556100368499756
1790334792217890600,17.628890625,4.884171485900879,-7.15387487411499,-2.3487119674682617
1790334792234352400,17.645352294921874,1.968033790588379,-10.007762908935547,-2.0183119773864746
1790334792250785800,17.661785888671876,-0.3471592366695404,-9.033323287963867,-3.7852327823638916
1790334792267222500,17.678222412109374,9.17697525024414,-7.1706342697143555,-4.086902141571045
1790334792283682800,17.694682861328126,3.162740468978882,-8.561665534973145,-6.646304130554199
1790334792300124700,17.711124755859377,6.086060523986816,-9.409213066101074,-2.0590133666992188
1790334792316563200,17.727563232421875,3.318363666534424,-9.576807022094727,-4.752490520477295
1790334792333002000,17.744001953125,6.720524311065674,-5.3582234382629395,-4.383783340454102
1790334792349440800,17.760440673828125,2.935291290283203,-6.809109687805176,-8.683769226074219
1790334792365887000,17.776886962890625,4.613626480102539,-5.944802761077881,-2.6623523235321045
1790334792382325200,17.7933251953125,-2.0590133666992188,-8.523358345031738,-8.736441612243652
1790334792398761500,17.809761474609374,6.354211330413818,-8.827422142028809,-3.8307228088378906
1790334792415199000,17.826198974609376,-1.9728221893310547,-12.358869552612305,-5.420472621917725
1790334792431635000,17.842635009765626,3.9671921730041504,-9.255983352661133,-6.275202751159668
1790334792448068900,17.85906884765625,1.482010841369629,-8.789113998413086,-2.7509377002716064
1790334792464502500,17.87550244140625,3.4332852363586426,-9.459490776062012,-6.950367450714111
1790334792480950000,17.891949951171874,7.967903137207031,-6.737283706665039,-6.835445880889893
1790334792497385500,17.908385498046876,-1.7094600200653076,-9.706093788146973,-10.139444351196289
1790334792513820400,17.9248203125,7.0772600173950195,-5.25527286529541,-1.0773907899856567
1790334792530253000,17.941253173828127,1.556231141090393,-11.73398208618164,-8.803479194641113
1790334792546694400,17.9576943359375,5.324704647064209,-5.374982833862305,1.8698714971542358
1790334792563131600,17.974131591796876,-1.5131354331970215,-11.750741958618164,-6.339846134185791
1790334792579567600,17.990567626953126,7.491456985473633,-6.866570472717285,-2.341529369354248
1790334792596004000,18.007004150390625,5.781997203826904,-7.2113356590271,-7.362170219421387
1790334792612447200,18.023447265625,3.205836057662964,-8.394071578979492,-5.130774021148682
1790334792628884200,18.03988427734375,6.291962146759033,-5.501875400543213,-6.00226354598999
1790334792645319400,18.0563193359375,4.841075897216797,-10.764330863952637,-5.451597213745117
1790334792661755000,18.0727548828125,4.568136692047119,-6.768408298492432,-3.804386615753174
1790334792678191600,18.089191650390624,3.7397429943084717,-7.642292022705078,-1.070208191871643
1790334792694630100,18.105630126953123,6.562506675720215,-5.544970989227295,-1.7477672100067139
1790334792711066400,18.12206640625,1.8818424940109253,-7.465120792388916,-2.0254945755004883
1790334792727513300,18.138513427734374,3.2178070545196533,-10.050858497619629,-2.75812029838562
1790334792743953400,18.154953369140625,5.78678560256958,-5.530605792999268,0.031124621629714966
1790334792760392200,18.17139208984375,2.094926595687866,-8.470685958862305,-4.651933670043945
1790334792776830500,18.18783056640625,6.078877925872803,-6.236895561218262,-5.556941986083984
1790334792793274000,18.204274169921874,-0.2968810200691223,-13.510479927062988,-8.147468566894531
1790334792809713700,18.220713623046876,4.8267107009887695,-6.610390663146973,-2.255337953567505
1790334792826153200,18.2371533203125,-4.137180328369141,-9.141061782836914,-4.742913722991943
1790334792842591200,18.25359130859375,5.17626428604126,-7.769184589385986,-6.157886981964111
1790334792859033900,18.270033935546873,7.046135425567627,-4.642356872558594,0.4812345504760742
1790334792875470000,18.286469970703124,3.9480385780334473,-13.836091995239258,-8.89445972442627
1790334792891909600,18.30290966796875,6.890512466430664,-8.334216117858887,-0.33758243918418884
1790334792908349400,18.319349365234373,7.620744228363037,-6.670246124267578,-5.999869346618652
1790334792924790300,18.335790283203124,4.247313976287842,-6.720524311065674,-3.359065055847168
1790334792941231400,18.3522314453125,-1.623268723487854,-10.168174743652344,-9.5408935546875
1790334792957669600,18.368669677734374,4.764461517333984,-7.4986395835876465,-3.3877954483032227
1790334792974134500,18.385134521484375,-3.0765492916107178,-4.888959884643555,-1.9823989868164062
1790334792990622000,18.4016220703125,2.715024709701538,-10.311826705932617,-8.552088737487793
1790334793007060200,18.418060302734375,3.995922565460205,-7.225700855255127,-1.039083480834961
1790334793023518500,18.4345185546875,1.4413094520568848,-9.131484985351562,-7.079654216766357
1790334793039957200,18.450957275390625,3.8953661918640137,-6.916848659515381,-2.166752576828003
1790334793056392000,18.467391845703126,-0.751779317855835,-6.598419666290283,-8.707711219787598
1790334793072829200,18.4838291015625,4.060565948486328,-7.65186882019043,-4.022258758544922
1790334793089230800,18.50023095703125,1.7525556087493896,-4.51067590713501,-7.374141216278076
1790334793105691400,18.51669140625,5.12119722366333,-8.762778282165527,-4.702212333679199
1790334793122128000,18.5331279296875,9.454702377319336,-7.208941459655762,-5.212177276611328
1790334793138569500,18.549569580078124,3.818751811981201,-10.022128105163574,-6.5265936851501465
1790334793155007200,18.56600732421875,3.0837318897247314,-6.53377628326416,-1.2234370708465576
1790334793171446300,18.5824462890625,0.19632454216480255,-6.449979305267334,0.6727706789970398
1790334793187899600,18.598899658203123,5.188235282897949,-6.871358871459961,-3.869029998779297
1790334793204312000,18.61531201171875,4.55616569519043,-5.078101634979248,-0.828393816947937
1790334793220700400,18.631700439453127,3.60566782951355,-9.191340446472168,-5.463568210601807
1790334793237138700,18.648138671875,4.371812343597412,-8.17380428314209,-0.1628057211637497
1790334793253574700,18.66457470703125,3.737348794937134,-12.301408767700195,-2.161964178085327
1790334793270019300,18.681019287109375,0.8738836050033569,-8.966285705566406,-2.832340717315674
1790334793286462200,18.697462158203123,3.713406801223755,-7.752425193786621,-3.2824504375457764
1790334793302957600,18.71395751953125,4.185064792633057,-7.058106422424316,-4.651933670043945
1790334793319398400,18.7303984375,6.900089263916016,-6.421248912811279,-2.094926595687866
1790334793335836700,18.746836669921876,1.8148049116134644,-8.631096839904785,-6.196194171905518
1790334793352291800,18.763291748046875,5.039794445037842,-7.580042362213135,-1.3479355573654175
1790334793368727800,18.779727783203125,4.721365928649902,-13.249512672424316,-8.073247909545898
1790334793385175000,18.796175048828125,-1.8507179021835327,-5.671864032745361,-1.2090718746185303
1790334793401617200,18.8126171875,4.261679172515869,-9.550470352172852,-4.594472885131836
1790334793418058000,18.82905810546875,3.4739866256713867,-9.694122314453125,-6.138733386993408
1790334793434502100,18.845502197265624,5.894524574279785,-7.783549785614014,-2.3295583724975586
1790334793450938600,18.861938720703126,5.679046630859375,-9.66539192199707,-4.881777286529541
1790334793467397000,18.878397216796873,5.102043628692627,-5.66228723526001,-1.4963760375976562
1790334793483836200,18.894836181640624,3.19865345954895,-5.154716491699219,-0.2082955539226532
1790334793500276200,18.911276123046875,2.7940332889556885,-9.390059471130371,-5.52821159362793
1790334793516719900,18.927719970703127,2.3965959548950195,-12.325350761413574,1.4891934394836426
1790334793533163800,18.944163818359375,4.285621166229248,-5.348646640777588,-5.975927352905273
1790334793549608000,18.96060791015625,8.760383605957031,-6.184223175048828,-4.441244125366211
1790334793566049000,18.977049072265626,2.118868589401245,-9.481039047241211,-4.14915132522583
1790334793582488600,18.993488525390624,5.39174222946167,-6.311115741729736,-1.0797849893569946
1790334793598947000,19.009947021484376,0.31364041566848755,-9.737217903137207,-9.684545516967773
1790334793615385900,19.0263857421875,3.663128614425659,-11.204863548278809,-5.178658485412598
1790334793631829200,19.042829345703126,4.51067590713501,-10.374075889587402,1.0319008827209473
1790334793648266800,19.059266845703124,6.600813865661621,-4.867412090301514,-5.039794445037842
1790334793664707600,19.07570751953125,2.762908697128296,-5.327098846435547,-0.6536170840263367
1790334793681159400,19.092159423828125,1.6160861253738403,-12.035652160644531,-6.256049156188965
1790334793697601300,19.108601318359376,0.19153612852096558,-7.1706342697143555,1.278503656387329
1790334793714068000,19.12506787109375,-1.0319008827209473,-6.5481414794921875,-5.758055210113525
1790334793730374700,19.141374755859374,5.135562419891357,-8.832210540771484,-5.870582580566406
1790334793746806300,19.15780615234375,5.975927352905273,-6.885724067687988,-1.7573440074920654
1790334793763226000,19.17422607421875,4.0294413566589355,-9.35654067993164,-6.1052141189575195
1790334793779701200,19.190701171875,4.326322555541992,-7.026981830596924,-2.5330653190612793
1790334793796155400,19.2071552734375,3.756502389907837,-6.97430944442749,-6.675034523010254
1790334793812597000,19.223596923828126,4.288015365600586,-7.5968017578125,-2.827552318572998
1790334793829035300,19.24003515625,8.034940719604492,-9.117119789123535,-4.477157115936279
1790334793845493000,19.256492919921875,5.109226226806641,-9.821015357971191,-4.244919776916504
1790334793861930500,19.272930419921874,5.25527286529541,-8.820239067077637,-5.216965675354004
1790334793878382000,19.289382080078123,3.40216064453125,-6.581660270690918,-7.386112213134766
1790334793894817800,19.30581787109375,5.679046630859375,-5.731719017028809,-1.1827356815338135
1790334793911263700,19.322263671875,-0.49559974670410156,-5.106832027435303,-1.1037269830703735
1790334793927712300,19.338712158203126,3.713406801223755,-3.4835634231567383,2.6384103298187256
1790334793944122000,19.3551220703125,2.7940332889556885,-13.907917976379395,-5.2911858558654785
1790334793960568600,19.371568603515627,3.88818359375,-8.482656478881836,-1.941697597503662
1790334793976880600,19.387880615234376,3.00711727142334,-10.046070098876953,-1.194706678390503
1790334793993320400,19.404320556640624,5.202600479125977,-16.03875732421875,-7.24485445022583
1790334794009775000,19.420775146484374,4.738125324249268,-4.46518611907959,0.6991068720817566
1790334794026246000,19.437245849609376,3.1268274784088135,-7.161057472229004,-7.103596210479736
1790334794042698800,19.45369873046875,2.3367409706115723,-10.043676376342773,-2.8850131034851074
1790334794059140000,19.47014013671875,3.598485231399536,-11.298237800598145,-3.5434184074401855
1790334794075580400,19.486580322265624,4.144362926483154,-11.710040092468262,-9.011775016784668
1790334794091934700,19.502934814453123,9.41639518737793,-6.057330131530762,-3.1866824626922607
1790334794108275700,19.519275634765624,1.9800047874450684,-8.33182144165039,-7.273584842681885
1790334794124713200,19.535713134765626,3.7158010005950928,-2.540247917175293,-0.016759412363171577
1790334794141149200,19.552149169921876,3.378218650817871,-8.865729331970215,-0.4908113479614258
1790334794157452000,19.5684521484375,0.9672574996948242,-5.925649166107178,-10.967838287353516
1790334794173887200,19.58488720703125,8.489839553833008,-10.84094524383545,-7.481880187988281
1790334794190301700,19.6013017578125,5.363011837005615,-14.872780799865723,-7.333439826965332
1790334794206742300,19.6177421875,5.307945251464844,-7.510610580444336,0.08140286058187485
1790334794223177500,19.634177490234375,2.0374655723571777,-6.485892295837402,-0.040701430290937424
1790334794239615200,19.650615234375,4.2760443687438965,-7.41484260559082,-5.770026206970215
1790334794256052200,19.66705224609375,4.618414878845215,-5.686229228973389,-0.14365209639072418
1790334794272495900,19.683495849609375,4.378994941711426,-9.988609313964844,-8.257601737976074
1790334794288961300,19.699961181640624,5.774814605712891,-5.987898349761963,-4.5609540939331055
1790334794305397800,19.716397705078126,3.9193081855773926,-10.050858497619629,-7.5968017578125
1790334794321836500,19.73283642578125,3.1866824626922607,-7.556100368499756,-2.8634653091430664
1790334794338287400,19.749287353515626,-3.162740468978882,-7.7763671875,-4.932055473327637
1790334794354725400,19.765725341796873,3.9025487899780273,-8.808267593383789,-6.303933143615723
1790334794371189000,19.78218896484375,1.4245500564575195,-2.647987127304077,-6.478709697723389
1790334794387627800,19.798627685546876,4.0533833503723145,-14.698003768920898,-9.181763648986816
1790334794404066600,19.815066650390627,-2.6001031398773193,-5.420472621917725,-1.2952631711959839
1790334794420505600,19.831505615234374,3.004723072052002,-8.17141056060791,-5.655104637145996
1790334794436943600,19.847943603515624,3.536235809326172,-10.079588890075684,-3.3470940589904785
1790334794453415200,19.864415283203126,2.4396915435791016,-10.14902114868164,1.5394717454910278
1790334794469852000,19.880851806640624,0.5530605912208557,-6.943184852600098,-10.960655212402344
1790334794486290200,19.897290283203127,3.952826976776123,-4.987122058868408,0.19632454216480255
1790334794502729500,19.9137294921875,2.3535003662109375,-7.663839817047119,-8.355764389038086
1790334794519175000,19.9301748046875,3.8139634132385254,-5.51624059677124,0.23702596127986908
1790334794535636500,19.946636474609374,3.0190882682800293,-13.278243064880371,0.6871358752250671
1790334794552077800,19.963077880859377,1.946485996246338,-11.951854705810547,-5.355829238891602
1790334794568518100,19.97951806640625,5.583278179168701,-5.525817394256592,-0.7134721279144287
1790334794584974800,19.995974853515627,5.525817394256592,-12.047622680664062,-7.50582218170166
1790334794601417200,20.012417236328126,0.2992752194404602,-6.210559368133545,-2.0398597717285156
1790334794617886200,20.02888623046875,-1.7334020137786865,-8.17380428314209,-5.858611583709717
1790334794634328300,20.045328369140623,3.7205893993377686,-7.12035608291626,-3.7636849880218506
1790334794650768400,20.061768310546874,-0.6129156351089478,-5.623979568481445,-2.75812029838562
1790334794667211000,20.0782109375,6.3949127197265625,-10.536881446838379,-6.229712963104248
1790334794683651600,20.094651611328125,6.629544734954834,-5.983109951019287,-2.3104045391082764
1790334794700097800,20.111097900390625,1.7525556087493896,-11.513715744018555,-8.542511940002441
1790334794716540400,20.12754052734375,4.017470359802246,-7.3693528175354,-4.333505153656006
1790334794732982800,20.143982666015624,1.1013327836990356,-5.284003257751465,-8.643068313598633
1790334794749424600,20.160424560546875,5.006275653839111,-9.093177795410156,-8.422801971435547
1790334794765871000,20.17687109375,5.049371242523193,-5.719748020172119,-4.271255970001221
1790334794782335500,20.19333544921875,3.222595453262329,-13.615824699401855,-8.101978302001953
1790334794798776600,20.209776611328124,3.756502389907837,-6.258443355560303,-0.272938996553421
1790334794815221500,20.226221435546876,5.683835029602051,-6.457161903381348,-1.8602946996688843
1790334794831676400,20.242676513671874,3.136404275894165,-10.014945983886719,-7.508216381072998
1790334794848118500,20.259118408203125,1.0654197931289673,-5.351040840148926,-7.750030994415283
1790334794864580900,20.275580810546874,5.676652431488037,-10.577583312988281,-7.436390399932861
1790334794881022200,20.292022216796877,3.9671921730041504,-6.5481414794921875,-0.7709329724311829
1790334794897463800,20.3084638671875,1.2018892765045166,-6.8809356689453125,1.6304513216018677
1790334794913902800,20.32490283203125,5.0014872550964355,-7.141903877258301,-3.9600095748901367
1790334794930340600,20.341340576171874,7.12035608291626,-6.497863292694092,0.5051765441894531
1790334794946729500,20.3577294921875,4.039018154144287,-9.545681953430176,-6.703764915466309
1790334794963139800,20.374139892578125,1.3096283674240112,-8.757989883422852,-2.715024709701538
1790334794979577000,20.3905771484375,-0.028730420395731926,-3.7852327823638916,-1.1779472827911377
1790334794996016400,20.407016357421874,5.2672438621521,-7.168240070343018,-1.3742717504501343
1790334795012461600,20.423461669921874,3.313575267791748,-8.978256225585938,0.727837324142456
1790334795028920600,20.439920654296873,4.110844135284424,-7.953537940979004,-4.031835556030273
1790334795045358800,20.45635888671875,6.952761650085449,-5.128379821777344,-4.575319290161133
1790334795061774800,20.47277490234375,-4.797980308532715,-14.235923767089844,-6.0190229415893555
1790334795078227500,20.4892275390625,4.290409564971924,-6.739677906036377,-0.2513911724090576
1790334795094663200,20.5056630859375,4.606443881988525,-8.310274124145508,0.7134721279144287
1790334795111121400,20.522121337890624,2.9328970909118652,-6.8378400802612305,-6.074089527130127
1790334795127558700,20.53855859375,8.813055992126465,-7.33583402633667,-4.879383087158203
1790334795143994000,20.554994140625,1.9991583824157715,-11.051634788513184,-5.07570743560791
1790334795160446500,20.571446533203126,1.5275006294250488,-6.696582317352295,-0.8954314589500427
1790334795176910000,20.58791015625,-1.0462661981582642,-7.814674377441406,-7.618350028991699
1790334795193349000,20.60434912109375,4.0294413566589355,-10.204087257385254,-5.95677375793457
1790334795209783600,20.620783447265627,-1.072602391242981,-5.5114521980285645,-0.47644615173339844
1790334795226216200,20.63721630859375,2.3918075561523438,-6.2392897605896,-10.146626472473145
1790334795242651100,20.653651123046874,4.661510944366455,-6.246472358703613,-1.6376339197158813
1790334795259090700,20.670090576171877,1.889025092124939,-10.1753568649292,-4.60165548324585
1790334795275574000,20.686573974609374,2.695871114730835,-10.3549222946167,-4.5825018882751465
1790334795292008200,20.70300830078125,4.90571928024292,-9.260771751403809,-1.9608511924743652
1790334795308445000,20.71944482421875,-0.363918662071228,-9.232041358947754,-9.459490776062012
1790334795324896300,20.735896240234375,6.222530364990234,-6.94079065322876,-3.641580820083618
1790334795341332500,20.75233251953125,3.2178070545196533,-11.001357078552246,-8.099584579467773
1790334795357795800,20.7687958984375,-0.023942016065120697,-5.772420406341553,-0.4213795065879822
1790334795374231300,20.785231201171875,6.777985095977783,-7.888894557952881,0.5913678407669067
1790334795390666800,20.801666748046873,3.3854012489318848,-11.312602996826172,-10.146626472473145
1790334795407102700,20.818102783203123,0.7613561153411865,-4.422090530395508,-3.6511576175689697
1790334795423538200,20.8345380859375,0.3519476354122162,-9.265560150146484,-9.567230224609375
1790334795439978200,20.850978271484376,4.0749311447143555,-6.603208065032959,-1.6065093278884888
1790334795456415000,20.8674150390625,5.054159641265869,-6.938396453857422,-4.953603267669678
1790334795472847400,20.883847412109375,1.680729627609253,-9.14345645904541,-9.919178009033203
1790334795489281800,20.90028173828125,7.445967197418213,-7.647080421447754,-5.96874475479126
1790334795505721300,20.916721435546876,3.821146011352539,-11.892000198364258,-10.086771965026855
1790334795522160400,20.933160400390626,-0.6344634294509888,-2.4875755310058594,0.3423708379268646
1790334795538594000,20.949593994140624,4.0964789390563965,-9.667786598205566,-1.1109095811843872
1790334795555029200,20.966029296875,3.778050184249878,-12.696451187133789,-8.233659744262695
1790334795571488000,20.982488037109373,5.430049419403076,-6.301538944244385,-6.112396717071533
1790334795587922400,20.99892236328125,5.341464042663574,-8.250418663024902,-6.581660270690918
1790334795604358000,21.01535791015625,3.021482467651367,-4.596867084503174,1.2258312702178955
1790334795620795100,21.031795166015623,2.3104045391082764,-11.113883972167969,-0.8259995579719543
