time,seconds_elapsed,z,y,x
1790334774736412400,0.147412353515625,-0.4080579876899719,0.2376265823841095,0.5693264007568359
1790334774752863200,0.16386328125,-0.4080579876899719,0.2376265823841095,0.5693264007568359
1790334774769310000,0.18031005859375,-0.4080579876899719,0.2376265823841095,0.5693264007568359
1790334774785700000,0.1967001953125,-0.4080579876899719,0.2376265823841095,0.5693264007568359
1790334774802178600,0.213178466796875,-0.4080579876899719,0.2376265823841095,0.5693264007568359
1790334774818630000,0.2296298828125,-0.4080579876899719,0.2376265823841095,0.5693264007568359
1790334774835102000,0.24610205078125,-0.4080579876899719,0.2376265823841095,0.5693264007568359
1790334774851551500,0.262551513671875,0.0806342139840126,0.04337143152952194,0.6444628238677979
1790334774868041200,0.279041259765625,0.06536258012056351,0.24373523890972137,0.5418374538421631
1790334774884551000,0.295551025390625,-0.05009094998240471,0.36590829491615295,0.40744712948799133
1790334774900987100,0.311987060546875,-0.15454891324043274,0.3439171314239502,0.22113321721553802
1790334774917456600,0.32845654296875,-0.26633724570274353,0.3127630054950714,-0.11178833991289139
1790334774933908700,0.34490869140625,-0.29504790902137756,0.26511552929878235,-0.4709770977497101
1790334774950402000,0.361402099609375,-0.20891591906547546,0.1661553531885147,-0.7018841505050659
1790334774966880000,0.3778798828125,-0.018325956538319588,0.2785545587539673,-0.9193521738052368
1790334774983354600,0.394354736328125,0.07330382615327835,0.13439035415649414,-1.2907582521438599
1790334774999825000,0.410824951171875,-0.025045474991202354,-0.06536258012056351,-1.7690657377243042
1790334775016270000,0.42727001953125,-0.15577064454555511,-0.019547687843441963,-1.9480493068695068
1790334775032766000,0.443765869140625,-0.06902777403593063,-0.07696902006864548,-1.6603317260742188
1790334775049262600,0.4602626953125,0.11789698898792267,0.18020524084568024,-1.1905763149261475
1790334775065734400,0.476734375,0.21441370248794556,0.5742133259773254,-0.8295549750328064
1790334775082226200,0.49322607421875,0.20036379992961884,0.6908885836601257,-0.5216789245605469
1790334775098671600,0.509671630859375,0.08674286305904388,0.5271766781806946,-0.2877175211906433
1790334775115162400,0.526162353515625,-0.2125810980796814,0.3188716471195221,-0.24373523890972137
1790334775131670800,0.5426708984375,-0.607200026512146,0.10690141469240189,-0.3604104816913605
1790334775148128300,0.559128173828125,-1.0659598112106323,-0.04337143152952194,-0.617584764957428
1790334775164626200,0.575626220703125,-1.321912407875061,-0.18020524084568024,-0.7574729323387146
1790334775181072400,0.592072265625,-1.1850786209106445,-0.4495968222618103,-0.627358615398407
1790334775197590300,0.60859033203125,-0.8546004891395569,-0.4789183437824249,-0.4031710624694824
1790334775214068200,0.625068115234375,-0.6817256212234497,-0.28588494658470154,-0.2474004179239273
1790334775230544000,0.6415439453125,-0.6829473376274109,-0.09468411654233932,-0.24373523890972137
1790334775247017000,0.658016845703125,-0.7232644557952881,0.02687807008624077,-0.3396410644054413
1790334775263468800,0.67446875,-0.7531968355178833,0.1466076523065567,-0.4544837474822998
1790334775279946500,0.690946533203125,-0.6389650702476501,0.29077184200286865,-0.5296201705932617
1790334775296447200,0.707447265625,-0.39645153284072876,0.37629300355911255,-0.5125159621238708
1790334775312934700,0.7239345703125,-0.24190263450145721,0.37201693654060364,-0.3897320330142975
1790334775329407200,0.7404072265625,-0.2076941877603531,0.3341432809829712,-0.242513507604599
1790334775345853200,0.756853271484375,-0.14905111491680145,0.23151792585849762,-0.1215621829032898
1790334775362332700,0.773332763671875,-0.08979719132184982,-0.00855211354792118,-0.03726277872920036
1790334775378822100,0.789822265625,-0.10751228034496307,-0.19303341209888458,0.06902777403593063
1790334775395270400,0.8062705078125,-0.10934487730264664,-0.37751471996307373,0.051312681287527084
1790334775411726300,0.822726318359375,-0.04886921867728233,-0.1771509200334549,0.1973094791173935
1790334775428170800,0.839170654296875,-0.1918116807937622,-0.18448130786418915,0.4288274049758911
1790334775444642600,0.855642578125,-0.3805690407752991,-0.2431243658065796,0.5076290369033813
1790334775461102300,0.872102294921875,-0.5894849896430969,-0.24495697021484375,0.5174028873443604
1790334775477563600,0.888563720703125,-0.7305948138237,-0.12950342893600464,0.4862487316131592
1790334775494045200,0.905045166015625,-0.7440338730812073,0.23945917189121246,0.15943582355976105
1790334775510491600,0.92149169921875,-0.5241223573684692,0.22052235901355743,0.015882495790719986
1790334775526958300,0.937958251953125,-0.17104226350784302,0.07757988572120667,0.2926044464111328
1790334775543438600,0.9544384765625,0.20341812074184418,0.13561208546161652,0.5534439086914062
1790334775559907000,0.970906982421875,0.25045475363731384,0.14538592100143433,0.5571091175079346
1790334775576380400,0.98738037109375,-0.00733038317412138,-0.0555887371301651,0.2883284091949463
1790334775592825900,1.003825927734375,-0.3591887652873993,-0.1563815027475357,0.025045474991202354
1790334775609323800,1.02032373046875,-0.4031710624694824,-0.18325957655906677,-0.24862214922904968
1790334775625803000,1.036802978515625,-0.32559117674827576,-0.15271630883216858,-0.47708576917648315
1790334775642261200,1.05326123046875,-0.23457226157188416,-0.18325957655906677,-0.6536257863044739
1790334775658755000,1.069755126953125,-0.12767083942890167,-0.2626720666885376,-0.7574729323387146
1790334775675201000,1.086200927734375,-0.09834930300712585,-0.342695415019989,-0.8252789378166199
1790334775691688700,1.102688720703125,-0.09162978827953339,-0.3689626157283783,-0.7110471725463867
1790334775708168400,1.11916845703125,-0.1814269721508026,-0.342695415019989,-0.45753806829452515
1790334775724628200,1.135628173828125,-0.2730567753314972,-0.5015203952789307,-0.27977627515792847
1790334775741093000,1.152093017578125,-0.31093040108680725,-0.8393288254737854,-0.16310101747512817
1790334775757538800,1.168538818359375,-0.2926044464111328,-1.0018190145492554,-0.10262536257505417
1790334775774015000,1.185014892578125,-0.41661009192466736,-0.9205739498138428,-0.018936822190880775
1790334775790496800,1.201496826171875,-0.49785518646240234,-1.0806206464767456,0.0659734457731247
1790334775806988000,1.217988037109375,-0.5503895878791809,-0.8936958312988281,0.32009339332580566
1790334775823481900,1.23448193359375,-0.7012733221054077,-0.9352346658706665,0.6230825781822205
1790334775839928300,1.25092822265625,-0.8454375267028809,-1.1478158235549927,1.0934487581253052
1790334775856448300,1.2674482421875,-0.5693264007568359,-1.578475832939148,1.244943380355835
1790334775872929800,1.2839296875,-0.2064724564552307,-1.5906931161880493,0.59803706407547
1790334775889379800,1.3003798828125,-0.2480112910270691,-1.7275269031524658,-0.13744467496871948
1790334775905874400,1.31687451171875,-0.3494149148464203,-1.3072515726089478,-0.7568620443344116
1790334775922278700,1.333278564453125,-0.49785518646240234,-0.8069530129432678,-1.2357803583145142
1790334775938803700,1.3498037109375,-0.4740314185619354,-0.6841690540313721,-1.7232508659362793
1790334775955282200,1.3662822265625,-0.2168571650981903,-0.9224064946174622,-2.1032090187072754
1790334775971759900,1.382759765625,-0.006108652334660292,-1.4159855842590332,-2.2406537532806396
1790334775988261400,1.399261474609375,0.12767083942890167,-1.3213015794754028,-2.0732767581939697
1790334776004714200,1.41571435546875,0.2620611786842346,-0.827111542224884,-2.0384573936462402
1790334776021213700,1.432213623046875,0.3640756905078888,-0.1771509200334549,-2.099543809890747
1790334776037702100,1.4487021484375,0.475253164768219,-0.15577064454555511,-2.158186912536621
1790334776054180600,1.4651806640625,0.6603453159332275,-0.46547931432724,-2.208277940750122
1790334776070649600,1.481649658203125,1.1056660413742065,-0.4758640229701996,-2.0451767444610596
1790334776087102200,1.498102294921875,1.6597208976745605,-0.608421802520752,-1.8362609148025513
1790334776103609000,1.514609130859375,2.3695461750030518,-0.6872233748435974,-1.6297885179519653
1790334776120117800,1.53111767578125,3.1422908306121826,-0.6108652353286743,-1.2956452369689941
1790334776136572200,1.547572265625,3.408017158508301,-0.39095374941825867,-0.6047565937042236
1790334776153047000,1.564047119140625,3.160005807876587,0.42760565876960754,0.3225368559360504
1790334776169497300,1.580497314453125,2.9584202766418457,1.80510675907135,1.5338826179504395
1790334776185991700,1.59699169921875,3.031113386154175,2.836247444152832,2.3793201446533203
1790334776202455800,1.613455810546875,3.2345314025878906,3.1300735473632812,2.9852983951568604
1790334776218923300,1.62992333984375,3.372586965560913,3.1844406127929688,3.5692856311798096
1790334776235406800,1.64640673828125,3.051271915435791,2.543642997741699,4.304156303405762
1790334776251857400,1.662857421875,1.4208725690841675,-1.6395623683929443,4.431827545166016
1790334776268340700,1.6793408203125,-0.4153883755207062,-1.9297232627868652,2.676811456680298
1790334776284824600,1.695824462890625,-1.6420058012008667,-2.9828550815582275,0.7629706859588623
1790334776301295900,1.7122958984375,-1.6743816137313843,-2.3243422508239746,0.2583959996700287
1790334776317771500,1.728771484375,-1.1398745775222778,-1.1099421977996826,0.4294382631778717
1790334776334218800,1.74521875,-0.6957755088806152,0.07635815441608429,0.7037167549133301
1790334776350730000,1.76172998046875,-0.1014036312699318,0.9822713136672974,0.7464773058891296
1790334776367213300,1.77821337890625,0.5155702829360962,1.320690631866455,0.4153883755207062
1790334776383665700,1.794665771484375,0.7489207983016968,0.5369505286216736,-0.5638286471366882
1790334776400145000,1.811144775390625,0.6896668672561646,0.20525072515010834,-1.5277739763259888
1790334776416595000,1.827594970703125,0.5418374538421631,1.072068452835083,-1.7079792022705078
1790334776433086700,1.844086669921875,0.24495697021484375,1.291369080543518,-1.8411478996276855
1790334776449571000,1.860571044921875,-0.1869247704744339,0.9181304574012756,-1.845423936843872
1790334776466026500,1.877026611328125,-0.45142942667007446,0.7898487448692322,-1.4202617406845093
1790334776482513200,1.89351318359375,-0.45814892649650574,0.8662069439888,-1.0005972385406494
1790334776498960000,1.9099599609375,-0.40072759985923767,0.7470881938934326,-0.9755517840385437
1790334776515427800,1.926427734375,-0.3854559659957886,0.7202101349830627,-1.0781772136688232
1790334776531922700,1.942922607421875,-0.4306600093841553,0.8814785480499268,-1.0396926403045654
1790334776548375600,1.95937548828125,-0.4544837474822998,0.8576548099517822,-0.9810495972633362
1790334776564870700,1.97587060546875,-0.40256020426750183,0.646295428276062,-0.8802568316459656
1790334776581314600,1.992314453125,-0.4355469346046448,0.28466320037841797,-0.6921103000640869
1790334776597782000,2.008781982421875,-0.5797111392021179,-0.0555887371301651,-0.46303585171699524
1790334776614289700,2.02528955078125,-0.6872233748435974,-0.27000242471694946,-0.35552358627319336
1790334776630746000,2.04174609375,-0.6951646208763123,-0.42210787534713745,-0.35185837745666504
1790334776647211500,2.05821142578125,-0.607810914516449,-0.4489859640598297,-0.38606682419776917
1790334776663654700,2.074654541015625,-0.5326744914054871,-0.3744603991508484,-0.455705463886261
1790334776680140500,2.091140625,-0.5088507533073425,-0.27611109614372253,-0.6261368989944458
1790334776696612000,2.107612060546875,-0.5412266254425049,-0.1722639948129654,-0.8417723178863525
1790334776713101000,2.12410107421875,-0.6591235995292664,-0.018936822190880775,-1.016479730606079
1790334776729570000,2.140570068359375,-0.7971791625022888,0.06658431142568588,-1.1386528015136719
1790334776746012000,2.157011962890625,-0.8539896011352539,0.11484266817569733,-1.2027937173843384
1790334776762505200,2.173505126953125,-0.8002334833145142,0.09834930300712585,-1.2663236856460571
1790334776779003000,2.1900029296875,-0.6921103000640869,0.0354301854968071,-1.370781660079956
1790334776795513600,2.206513671875,-0.6035348773002625,-0.16737708449363708,-1.513113260269165
1790334776811982800,2.22298291015625,-0.6346889734268188,-0.3933972120285034,-1.531439185142517
1790334776828431600,2.239431640625,-0.7000515460968018,-0.49357911944389343,-1.3781119585037231
1790334776844929500,2.255929443359375,-0.6939429044723511,-0.5907067060470581,-1.254717230796814
1790334776861437400,2.2724375,-0.675616979598999,-0.7709119319915771,-1.2974777221679688
1790334776877890300,2.288890380859375,-0.6126978397369385,-0.9480628371238708,-1.5827518701553345
1790334776894358000,2.30535791015625,-0.4306600093841553,-1.0012081861495972,-1.8307631015777588
1790334776910801000,2.32180078125,-0.2919935882091522,-1.018923282623291,-1.8417587280273438
1790334776927291400,2.33829150390625,-0.32681289315223694,-1.0561859607696533,-1.5601497888565063
1790334776943762200,2.35476220703125,-0.38240164518356323,-0.8900306820869446,-1.1099421977996826
1790334776960227300,2.371227294921875,-0.35246923565864563,-0.616973876953125,-1.0384708642959595
1790334776976701400,2.387701416015625,-0.28588494658470154,-0.07452555745840073,-1.122159481048584
1790334776993147400,2.4041474609375,-0.34025195240974426,0.17898350954055786,-1.2064588069915771
1790334777009616600,2.42061669921875,-0.6536257863044739,0.2822197377681732,-1.0812314748764038
1790334777026066200,2.437066162109375,-0.9138544201850891,0.5259549617767334,-0.7330383062362671
1790334777042534100,2.4535341796875,-0.9132435321807861,0.6493497490882874,-0.294437050819397
1790334777058977500,2.4699775390625,-0.7214318513870239,0.34147366881370544,0.04886921867728233
1790334777075420700,2.486420654296875,-0.5552765130996704,0.036651913076639175,0.17287486791610718
1790334777091913200,2.502913330078125,-0.4196644127368927,-0.33292156457901,0.16065755486488342
1790334777108394200,2.519394287109375,-0.4392121136188507,-0.8448266386985779,-0.012217304669320583
1790334777124827400,2.535827392578125,-0.5522221922874451,-0.9395107626914978,-0.06902777403593063
1790334777141150700,2.552150634765625,-0.5516113042831421,-0.47280970215797424,-0.03848451003432274
1790334777157567000,2.56856689453125,-0.43127086758613586,0.1007927656173706,-0.04337143152952194
1790334777173978400,2.584978271484375,-0.6310238242149353,0.10506882518529892,0.11545353382825851
1790334777190444800,2.60144482421875,-0.6670648455619812,-0.06475171446800232,0.08246681094169617
1790334777206929200,2.61792919921875,-0.4795292317867279,0.03726277872920036,-0.09224065393209457
1790334777223411500,2.634411376953125,-0.5216789245605469,-0.1411098688840866,-0.27000242471694946
1790334777239862000,2.650862060546875,-0.7562511563301086,-0.20830504596233368,-0.16432274878025055
1790334777256338200,2.667338134765625,-1.0024298429489136,-0.43615779280662537,0.15271630883216858
1790334777272809000,2.68380908203125,-1.1093312501907349,-0.5540547966957092,0.5094616413116455
1790334777289302300,2.70030224609375,-0.9816604256629944,-0.24923302233219147,0.6102544069290161
1790334777305793800,2.716793701171875,-0.6157521605491638,0.33597588539123535,0.26450464129447937
1790334777322256400,2.73325634765625,-0.4239404797554016,0.6450737118721008,0.012828170321881771
1790334777338727200,2.74972705078125,-0.30115658044815063,0.9175195693969727,-0.13744467496871948
1790334777355205000,2.766205078125,-0.1765400618314743,0.8570439219474792,-0.18448130786418915
1790334777371662800,2.782662841796875,-0.2064724564552307,0.7635815739631653,-0.18631389737129211
1790334777388113700,2.79911376953125,-0.2626720666885376,0.44593164324760437,-0.15332718193531036
1790334777404582000,2.815581787109375,-0.3194825351238251,-0.003054326167330146,-0.02076941914856434
1790334777421046800,2.832046875,-0.2321287989616394,-0.3139847218990326,0.20525072515010834
1790334777437527300,2.84852734375,-0.04459316283464432,-0.48747047781944275,0.38728857040405273
1790334777453975600,2.8649755859375,0.03237585723400116,-0.46181413531303406,0.4550946056842804
1790334777470419200,2.881419189453125,-0.056810468435287476,-0.2070833146572113,0.4337143301963806
1790334777486865700,2.89786572265625,-0.08857546001672745,0.056810468435287476,0.33719760179519653
1790334777503333000,2.9143330078125,-0.02871066704392433,0.2376265823841095,0.20830504596233368
1790334777519788000,2.9307880859375,0.08674286305904388,0.39645153284072876,0.04153883829712868
1790334777536265200,2.94726513671875,0.16310101747512817,0.44776421785354614,-0.012828170321881771
1790334777552708000,2.9637080078125,0.2168571650981903,0.4648684561252594,0.14477506279945374
1790334777569168400,2.98016845703125,0.22113321721553802,0.45265114307403564,0.3744603991508484
1790334777585635600,2.996635498046875,0.1563815027475357,0.3433062732219696,0.48380526900291443
1790334777602108700,3.013108642578125,0.1264491081237793,0.20830504596233368,0.49846604466438293
1790334777618557200,3.02955712890625,0.12767083942890167,0.08185594528913498,0.4593706727027893
1790334777635018500,3.0460185546875,0.14966198801994324,0.030543262138962746,0.5088507533073425
1790334777651474200,3.06247412109375,0.1014036312699318,-0.03420845419168472,0.588263213634491
1790334777667943400,3.078943359375,0.00427605677396059,-0.14294247329235077,0.7067710757255554
1790334777684417800,3.095417724609375,0.060475658625364304,-0.22602014243602753,0.6933320760726929
1790334777700890600,3.111890625,0.09162978827953339,-0.13011430203914642,0.5400048494338989
1790334777717365200,3.128365234375,0.09834930300712585,-0.17409659922122955,0.3585779070854187
1790334777733813000,3.14481298828125,0.17898350954055786,-0.24862214922904968,0.23640485107898712
1790334777750314500,3.161314453125,0.2119702398777008,-0.4386012554168701,0.11301007121801376
1790334777766781200,3.17778125,0.16371189057826996,-0.7531968355178833,0.05803219974040985
1790334777783292200,3.194292236328125,0.14782938361167908,-1.1246029138565063,0.06841690838336945
1790334777799799300,3.21079931640625,0.10995574295520782,-1.379333734512329,0.06841690838336945
1790334777816284200,3.2272841796875,0.06169738993048668,-1.3982704877853394,0.0555887371301651
1790334777832734500,3.243734375,-0.08918632566928864,-1.0500773191452026,0.08857546001672745
1790334777849181400,3.260181396484375,-0.1875356286764145,-0.656069278717041,0.10201449692249298
1790334777865657000,3.276656982421875,-0.18387043476104736,-0.10812314599752426,0.12461651116609573
1790334777882115800,3.29311572265625,-0.1111774742603302,0.3084869384765625,0.10323622822761536
1790334777898571800,3.30957177734375,-0.08124507963657379,0.6481280326843262,0.07513642311096191
1790334777915016700,3.3260166015625,-0.13866640627384186,0.5681046843528748,0.08246681094169617
1790334777931471000,3.34247119140625,-0.22418753802776337,0.36102136969566345,0.16737708449363708
1790334777947944200,3.358944091796875,-0.192422553896904,0.47219884395599365,0.31642818450927734
1790334777964417000,3.3754169921875,-0.11911872029304504,0.37751471996307373,0.42760565876960754
1790334777980865800,3.39186572265625,-0.08796459436416626,0.30054569244384766,0.4129449129104614
1790334777997312800,3.408312744140625,-0.08429940044879913,0.2767219543457031,0.304210901260376
1790334778013761300,3.42476123046875,-0.10323622822761536,0.27977627515792847,0.1612684279680252
1790334778030238700,3.44123876953125,-0.12095131725072861,0.24007004499435425,0.025656340643763542
1790334778046541000,3.457541015625,-0.14782938361167908,0.20341812074184418,-0.04764748737215996
1790334778062994700,3.47399462890625,-0.2015855312347412,0.12950342893600464,-0.0806342139840126
1790334778079460000,3.490460205078125,-0.22479841113090515,0.13744467496871948,-0.024434609338641167
1790334778095926500,3.506926513671875,-0.21991148591041565,0.10690141469240189,0.004886921960860491
1790334778112396500,3.523396484375,-0.1814269721508026,0.05803219974040985,-0.05803219974040985
1790334778128874200,3.539874267578125,-0.09346238523721695,-0.192422553896904,-0.2370157092809677
1790334778145317000,3.556317138671875,-0.06902777403593063,-0.394618958234787,-0.4178318381309509
1790334778161783600,3.572783447265625,-0.054367005825042725,-0.3243694305419922,-0.5161811113357544
1790334778178260500,3.589260498046875,-0.08552113175392151,0.010995574295520782,-0.6542366743087769
1790334778194740000,3.605739990234375,-0.18509216606616974,0.3243694305419922,-0.8032878041267395
1790334778211192000,3.622192138671875,-0.1722639948129654,0.6053674817085266,-0.8344419002532959
1790334778227640600,3.638640625,-0.2370157092809677,1.092837929725647,-0.9175195693969727
1790334778244103400,3.655103515625,-0.4245513379573822,1.5155566930770874,-1.141707181930542
1790334778260563500,3.6715634765625,-0.6004805564880371,1.5522085428237915,-1.3139711618423462
1790334778277037300,3.688037353515625,-0.6010913848876953,1.246165156364441,-1.4062118530273438
1790334778293506300,3.70450634765625,-0.4538728892803192,1.2980886697769165,-1.4404202699661255
1790334778309961500,3.72096142578125,-0.342695415019989,1.5210545063018799,-1.425148606300354
1790334778326457000,3.73745703125,-0.27611109614372253,1.4037683010101318,-1.2907582521438599
1790334778342930200,3.75393017578125,-0.32559117674827576,1.215621829032898,-1.0042624473571777
1790334778359378700,3.770378662109375,-0.5094616413116455,0.7855727076530457,-0.6969972252845764
1790334778375821000,3.786821044921875,-0.6261368989944458,0.513737678527832,-0.4813618063926697
1790334778392282400,3.803282470703125,-0.6224716901779175,0.4086688458919525,-0.3182607889175415
1790334778408753000,3.8197529296875,-0.5259549617767334,0.5619960427284241,-0.10262536257505417
1790334778425229000,3.83622900390625,-0.375071257352829,0.5668829679489136,0.009773843921720982
1790334778441677000,3.852677001953125,-0.3170390725135803,0.5064072608947754,-0.02076941914856434
1790334778458121700,3.869121826171875,-0.4453207552433014,0.5894849896430969,-0.0806342139840126
1790334778474564600,3.885564697265625,-0.5271766781806946,0.9731083512306213,-0.02382374368607998
1790334778491033300,3.902033447265625,-0.5204572081565857,1.348179578781128,0.08796459436416626
1790334778507498500,3.91849853515625,-0.5766568183898926,1.5241087675094604,0.13927727937698364
1790334778523993900,3.934993896484375,-0.7293730974197388,1.4080443382263184,0.10995574295520782
1790334778540457200,3.951457275390625,-0.8955284357070923,0.9834930300712585,0.1569923609495163
1790334778556917200,3.967917236328125,-1.0482447147369385,0.46792277693748474,0.2834414839744568
1790334778573390800,3.984390869140625,-1.1441506147384644,0.05375614017248154,0.40072759985923767
1790334778589867000,4.000866943359375,-1.1936306953430176,-0.1417207419872284,0.39156460762023926
1790334778606343200,4.01734326171875,-1.2003501653671265,-0.11056660860776901,0.25534167885780334
1790334778622812200,4.033812255859375,-1.224173903465271,-0.04153883829712868,0.007941247895359993
1790334778639270100,4.050270263671875,-1.2583824396133423,0.10262536257505417,-0.16432274878025055
1790334778655713500,4.066713623046875,-1.1801916360855103,0.21807889640331268,-0.16920967400074005
1790334778672175000,4.083175048828125,-0.9828822016716003,0.07941248267889023,0.0006108652451075613
1790334778688649200,4.099649169921875,-0.7617489695549011,0.9340129494667053,-1.2345587015151978
1790334778705119500,4.116119384765625,-0.836885392665863,1.6096298694610596,-2.1954495906829834
1790334778721567000,4.13256689453125,-0.8497135639190674,1.7159204483032227,-2.048841953277588
1790334778738033400,4.149033447265625,-0.39095374941825867,1.357953429222107,-0.49724429845809937
1790334778754477600,4.1654775390625,0.7800748944282532,1.76723313331604,0.09224065393209457
1790334778770853400,4.181853271484375,1.3353514671325684,-0.6542366743087769,1.189354658126831
1790334778787297300,4.19829736328125,0.22663100063800812,-1.9773707389831543,1.1844676733016968
1790334778803755000,4.214755126953125,0.003054326167330146,-1.7544050216674805,1.2944234609603882
1790334778820199400,4.231199462890625,0.04703662544488907,-1.2217304706573486,1.4062118530273438
1790334778836645600,4.247645751953125,-0.38117989897727966,-0.003054326167330146,0.8313875794410706
1790334778853087200,4.264087158203125,-0.403781920671463,0.3494149148464203,0.47708576917648315
1790334778869551000,4.280551025390625,-0.1973094791173935,0.30970868468284607,0.5491678714752197
1790334778885992700,4.29699267578125,-0.1264491081237793,0.031154127791523933,0.5051855444908142
1790334778902435000,4.31343505859375,-0.26145032048225403,-0.014049900695681572,0.20097467303276062
1790334778918887700,4.3298876953125,-0.28588494658470154,0.09285151958465576,0.19364428520202637
1790334778935332900,4.346332763671875,-0.1258382350206375,-0.009162978269159794,0.192422553896904
1790334778951778600,4.362778564453125,-0.05803219974040985,0.0012217304902151227,0.44776421785354614
1790334778968226600,4.3792265625,0.16982053220272064,-0.21930062770843506,0.627358615398407
1790334778984677600,4.395677734375,0.35552358627319336,-0.3732386529445648,0.9046914577484131
1790334779001131000,4.412131103515625,0.513126790523529,-0.4856378734111786,1.0598511695861816
1790334779017596400,4.428596435546875,0.7312057018280029,-0.46181413531303406,1.0586295127868652
1790334779034044700,4.445044677734375,0.5589417219161987,-0.48808133602142334,0.8069530129432678
1790334779050500600,4.46150048828125,0.3121521472930908,-0.22357667982578278,0.6316346526145935
1790334779066883600,4.477883544921875,0.30543261766433716,-0.09773843735456467,0.5748242139816284
1790334779083327000,4.494326904296875,0.3219259977340698,-0.0507018156349659,0.3995058834552765
1790334779099751000,4.5107509765625,0.14538592100143433,0.015271631069481373,0.3903428912162781
1790334779116185900,4.527185791015625,0.06414084881544113,-0.02382374368607998,0.12278391420841217
1790334779132629500,4.54362939453125,-0.05619960278272629,0.06780604273080826,-0.251676470041275
1790334779149070800,4.56007080078125,-0.05497787147760391,0.3488040566444397,-0.5558874011039734
1790334779165523200,4.576523193359375,0.042760565876960754,0.3182607889175415,-0.6298020482063293
1790334779181961500,4.59296142578125,0.11423180252313614,0.20525072515010834,-0.5015203952789307
1790334779198402000,4.609402099609375,0.15393804013729095,0.05009094998240471,-0.5161811113357544
1790334779214841300,4.62584130859375,0.08918632566928864,0.054367005825042725,-0.46853363513946533
1790334779231280000,4.642280029296875,0.001832595793530345,-0.02076941914856434,-0.39706242084503174
1790334779247720200,4.65872021484375,-0.08918632566928864,0.039706241339445114,-0.31520646810531616
1790334779264175400,4.67517529296875,-0.16004669666290283,0.20463985204696655,-0.7293730974197388
1790334779280614100,4.6916142578125,-0.1472185254096985,1.1459832191467285,-1.5338826179504395
1790334779297064700,4.708064697265625,-0.08857546001672745,1.5289957523345947,-1.9217820167541504
1790334779313506300,4.72450634765625,-0.04948008432984352,0.9950994849205017,-1.644449234008789
1790334779329946000,4.740946044921875,-0.22846360504627228,0.22663100063800812,-0.8949176073074341
1790334779346387000,4.757386962890625,-0.2070833146572113,-0.24495697021484375,-0.5186246037483215
1790334779362861800,4.77386181640625,-0.09834930300712585,-0.394008070230484,-0.4196644127368927
1790334779379305700,4.7903056640625,-0.2370157092809677,-0.5393940210342407,-0.3854559659957886
1790334779395746800,4.806746826171875,-0.6786713004112244,-0.6163630485534668,-0.40744712948799133
1790334779412201200,4.823201171875,-0.694553792476654,-0.6597344875335693,-0.6450737118721008
1790334779428642800,4.839642822265625,-0.2565633952617645,0.2174680233001709,-0.826500654220581
1790334779445087200,4.856087158203125,-0.06169738993048668,0.8851437568664551,-0.8759807348251343
1790334779461530600,4.872530517578125,-0.46181413531303406,0.720820963382721,-1.188132882118225
1790334779477972700,4.88897265625,-0.7605272531509399,1.2278391122817993,-1.1117748022079468
1790334779494412300,4.905412353515625,-0.9340129494667053,1.651168704032898,-0.6957755088806152
1790334779510867200,4.9218671875,-0.8491026759147644,1.986533761024475,-0.11850785464048386
1790334779527307300,4.938307373046875,-0.32009339332580566,2.367102861404419,0.42088615894317627
1790334779543758000,4.954758056640625,0.0354301854968071,1.6725490093231201,0.4300491213798523
1790334779560199400,4.971199462890625,0.022602014243602753,0.375071257352829,0.03848451003432274
1790334779576642600,4.987642578125,0.12767083942890167,-0.45265114307403564,0.19792033731937408
1790334779593084700,5.004084716796875,-0.06719517707824707,-1.6597208976745605,0.36102136969566345
1790334779609550800,5.02055078125,0.2981022298336029,-1.4214833974838257,-0.43615779280662537
1790334779625996300,5.036996337890625,0.08124507963657379,-2.5137104988098145,0.3781255781650543
1790334779642416600,5.053416748046875,0.5632177591323853,-1.398881435394287,0.9566149711608887
1790334779658852000,5.06985205078125,0.8979719281196594,-1.3829989433288574,1.037249207496643
1790334779675224000,5.08622412109375,0.5632177591323853,0.637132465839386,1.0134254693984985
1790334779691667500,5.10266748046875,0.959669291973114,-0.05192354694008827,0.10567969083786011
1790334779708111000,5.119111083984375,0.9480628371238708,0.8411614298820496,0.0757472887635231
1790334779724602000,5.13560205078125,0.18020524084568024,0.19425514340400696,-0.1814269721508026
1790334779740999000,5.1519990234375,-0.6597344875335693,-1.0445796251296997,0.07513642311096191
1790334779757440500,5.1684404296875,-0.015882495790719986,1.1087204217910767,-1.2125675678253174
1790334779773885700,5.1848857421875,-0.3982841372489929,-0.6310238242149353,-2.0170769691467285
1790334779790328800,5.201328857421875,-0.2541199326515198,-1.6126842498779297,-2.4159719944000244
1790334779806776600,5.217776611328125,-0.039095375686883926,-1.6438384056091309,-2.7336220741271973
1790334779823222300,5.23422216796875,0.009162978269159794,-1.4257594347000122,-3.321885108947754
1790334779839685400,5.250685302734375,-0.3683517575263977,-1.017701506614685,-4.397618770599365
1790334779856130600,5.267130615234375,-1.0696250200271606,-0.8460483551025391,-5.098281383514404
1790334779872585200,5.283585205078125,-1.5155566930770874,0.8234463334083557,-5.528330326080322
1790334779889029000,5.300029052734375,-3.241250991821289,5.633399486541748,-3.8643336296081543
1790334779905490400,5.316490478515625,-3.6548068523406982,6.122702121734619,-3.4232888221740723
1790334779921938700,5.332938720703125,-3.8172969818115234,5.75618314743042,-2.794097661972046
1790334779938381000,5.349381103515625,-2.4581217765808105,7.085425853729248,-3.819129467010498
1790334779954832400,5.365832275390625,-2.389704942703247,3.392134666442871,-2.8258626461029053
1790334779971306000,5.382305908203125,-1.7116444110870361,2.525927782058716,-3.032335042953491
1790334779987746300,5.398746337890625,-1.9468275308609009,3.5937201976776123,-1.338405728340149
1790334780004188400,5.4151884765625,0.8381071090698242,0.6444628238677979,-0.4764748811721802
1790334780020596200,5.43159619140625,-0.1508837193250656,-0.14905111491680145,-0.10384709388017654
1790334780037042400,5.44804248046875,0.2590068578720093,0.14049901068210602,-0.08368854224681854
1790334780053487600,5.464487548828125,0.2767219543457031,-0.04459316283464432,-0.05864306539297104
1790334780069894100,5.48089404296875,0.3952298164367676,-0.08491026610136032,-0.09162978827953339
1790334780086339000,5.497339111328125,0.4196644127368927,0.036041051149368286,-0.09957103431224823
1790334780102652000,5.51365185546875,0.21563543379306793,-0.039706241339445114,-0.09468411654233932
1790334780119095800,5.530095703125,0.04153883829712868,-0.00427605677396059,-0.06841690838336945
1790334780135581200,5.546581298828125,0.010995574295520782,-0.039095375686883926,0.00427605677396059
1790334780152098600,5.5630986328125,-0.05192354694008827,-0.001832595793530345,-0.08979719132184982
1790334780168546300,5.57954638671875,-0.02687807008624077,-0.11484266817569733,-0.07024950534105301
1790334780184927000,5.595927001953125,0.2834414839744568,-0.8112290501594543,-0.1814269721508026
1790334780201338000,5.612338134765625,0.28466320037841797,-1.1056660413742065,-0.21441370248794556
1790334780217789700,5.628789794921875,0.38728857040405273,-0.48869219422340393,-0.08307767659425735
1790334780234232800,5.64523291015625,0.3121521472930908,-0.1215621829032898,0.04948008432984352
1790334780250675500,5.661675537109375,0.06719517707824707,-0.11239920556545258,-0.01771509274840355
1790334780267120000,5.6781201171875,-0.033597588539123535,-0.03420845419168472,-0.02382374368607998
1790334780283605200,5.694605224609375,-0.01038470957428217,0.015271631069481373,0.010995574295520782
1790334780300064500,5.711064453125,0.00427605677396059,0.07880161702632904,0.0024434609804302454
1790334780316579800,5.727579833984375,0.009162978269159794,0.0507018156349659,0.01038470957428217
1790334780333051100,5.744051025390625,-0.02321287989616394,0.5839871764183044,0.33719760179519653
1790334780349502500,5.76050244140625,0.036041051149368286,0.8319984674453735,0.749531626701355
1790334780365961000,5.7769609375,-0.0806342139840126,0.15882496535778046,0.5143485069274902
1790334780382410200,5.79341015625,-0.41722095012664795,-0.3988949954509735,-0.024434609338641167
1790334780398886700,5.80988671875,-0.2974913716316223,-0.06841690838336945,-0.19853121042251587
1790334780415334000,5.826333984375,-0.009773843921720982,-0.3787364661693573,-0.23273965716362
1790334780431780600,5.842780517578125,0.18570303916931152,-0.7672467231750488,-0.32131510972976685
1790334780448239900,5.859239990234375,0.4086688458919525,-0.921795666217804,-0.41172316670417786
1790334780464691700,5.875691650390625,0.8338310718536377,-0.8106181621551514,-0.19425514340400696
1790334780481150700,5.892150634765625,0.6713408827781677,-0.252287358045578,0.0555887371301651
1790334780497592300,5.90859228515625,0.7519751191139221,0.4404338300228119,0.44287729263305664
1790334780514038000,5.9250380859375,0.7092145681381226,0.8772025108337402,0.79840087890625
1790334780530510000,5.941510009765625,0.6621779203414917,0.4092797040939331,0.817337691783905
1790334780546954000,5.9579541015625,0.22479841113090515,-0.3927863538265228,0.48747047781944275
1790334780563410200,5.97441015625,-0.0555887371301651,-0.4105014503002167,-0.12217304855585098
1790334780579854300,5.990854248046875,0.00366519158706069,0,0.03726277872920036
1790334780596303600,6.0073037109375,-0.08491026610136032,0.09712757170200348,0.04642575979232788
1790334780612774400,6.0237744140625,-0.001832595793530345,-0.1258382350206375,-0.048258353024721146
1790334780629213200,6.040213134765625,-0.03787364438176155,-0.1313360333442688,0.02015855349600315
1790334780645679600,6.0566796875,0.20891591906547546,0.3781255781650543,-0.12339477986097336
1790334780662120200,6.0731201171875,0.7476990818977356,0.9523389339447021,-0.05803219974040985
1790334780678563800,6.089563720703125,0.6328563690185547,-0.2773328125476837,-0.8936958312988281
1790334780695008300,6.10600830078125,-0.45265114307403564,0.1918116807937622,0.22907446324825287
1790334780711459600,6.12245947265625,0.009773843921720982,-0.11789698898792267,-0.02321287989616394
1790334780727905300,6.1389052734375,-0.018325956538319588,-0.17348572611808777,-0.036041051149368286
1790334780744351500,6.1553515625,0.05742133408784866,-0.3591887652873993,-0.09957103431224823
1790334780760799000,6.171799072265625,0.05253441259264946,-0.4196644127368927,-0.1062905490398407
1790334780777262800,6.188262939453125,0.0403171069920063,-0.33047810196876526,-0.13072516024112701
1790334780793709000,6.204708984375,0.039706241339445114,-0.2119702398777008,-0.10201449692249298
1790334780810154500,6.221154541015625,0.04581489413976669,-0.18081611394882202,-0.07696902006864548
1790334780826500000,6.2375,-0.014049900695681572,-0.0757472887635231,-0.08002334833145142
1790334780842907000,6.253906982421875,-0.025045474991202354,-0.1313360333442688,-0.08124507963657379
1790334780859345400,6.270345458984375,-0.02015855349600315,-0.13866640627384186,-0.0959058403968811
1790334780875786200,6.2867861328125,-0.033597588539123535,-0.1319468915462494,-0.03726277872920036
1790334780892236300,6.303236328125,-0.04214970022439957,-0.06108652427792549,-0.04337143152952194
1790334780908696000,6.319696044921875,-0.010995574295520782,-0.1111774742603302,-0.0354301854968071
1790334780925140500,6.336140380859375,-0.01710422709584236,-0.12400564551353455,-0.036041051149368286
1790334780941590000,6.352590087890625,-0.00366519158706069,-0.042760565876960754,-0.018325956538319588
1790334780958056700,6.369056640625,0.02871066704392433,-0.060475658625364304,0.03176499158143997
1790334780974543600,6.385543701171875,0.003054326167330146,0.01038470957428217,0.05314527451992035
1790334780991014400,6.402014404296875,-0.015882495790719986,-0.01466076634824276,0.025656340643763542
1790334781007486000,6.41848583984375,-0.02321287989616394,0.01466076634824276,0
1790334781023968800,6.43496875,-0.01710422709584236,-0.003054326167330146,-0.003054326167330146
1790334781040428500,6.451428466796875,0.036651913076639175,0.00427605677396059,0.013439035043120384
1790334781056952800,6.467952880859375,0.02626720629632473,0.009773843921720982,0.029932396486401558
1790334781073462300,6.484462158203125,-0.033597588539123535,0.0910189226269722,0.03848451003432274
1790334781089929500,6.500929443359375,-0.04153883829712868,0.15943582355976105,0.05925392732024193
1790334781106394000,6.51739404296875,0.01466076634824276,0.003054326167330146,0.039095375686883926
1790334781122856400,6.5338564453125,-0.028099801391363144,0.05742133408784866,-0.006719517521560192
1790334781139379000,6.55037890625,0.02382374368607998,0.02076941914856434,0.024434609338641167
1790334781155853300,6.566853271484375,0.00855211354792118,0.024434609338641167,0.028099801391363144
1790334781172324000,6.583323974609375,0.04764748737215996,0.009162978269159794,0.12034045159816742
1790334781188791000,6.599791015625,0.09224065393209457,0.00855211354792118,0.25473082065582275
1790334781205245000,6.616244873046875,0.15027284622192383,0.05864306539297104,0.5729916095733643
1790334781221701000,6.632701171875,0.2987131178379059,0.15515977144241333,0.9914342761039734
1790334781238145000,6.64914501953125,0.35185837745666504,0.2064724564552307,1.3561208248138428
1790334781254590200,6.665590087890625,-0.07880161702632904,0.12217304855585098,1.6169602870941162
1790334781271056600,6.682056640625,-0.39095374941825867,-0.0959058403968811,1.7886134386062622
1790334781287497700,6.698497802734375,-0.6585127115249634,-0.3194825351238251,1.7171422243118286
1790334781303953200,6.714953125,-0.25595253705978394,-0.3701843321323395,1.8057177066802979
1790334781320396800,6.731396728515625,0.05742133408784866,-1.757459282875061,0.5619960427284241
1790334781336841000,6.747841064453125,0.35124751925468445,0.21807889640331268,-0.5870414972305298
1790334781353297000,6.764296875,0.2730567753314972,1.0867292881011963,-0.41661009192466736
1790334781369645800,6.780645751953125,0.08307767659425735,0.06475171446800232,-0.6841690540313721
1790334781386078500,6.797078369140625,-0.0959058403968811,0.12767083942890167,-0.4605923891067505
1790334781402521900,6.81352197265625,-0.05375614017248154,0.10384709388017654,-0.1362229436635971
1790334781418966300,6.82996630859375,0.04886921867728233,-0.8246681094169617,-0.8332201838493347
1790334781435419400,6.84641943359375,-0.24862214922904968,0.15271630883216858,-1.5729780197143555
1790334781451869000,6.862868896484375,-0.42149701714515686,0.19975294172763824,-1.6701055765151978
1790334781468324600,6.87932470703125,-0.28038713335990906,-0.13072516024112701,-1.6120734214782715
1790334781484768300,6.895768310546875,-0.26633724570274353,-0.11972958594560623,-1.3145819902420044
1790334781501211400,6.91221142578125,0.29993483424186707,-0.7116580009460449,-0.4899139404296875
1790334781517674200,6.92867431640625,0.16371189057826996,-0.6572909951210022,-0.46670106053352356
1790334781534119400,6.945119384765625,0.16737708449363708,-0.43676865100860596,-0.37140607833862305
1790334781550577700,6.96157763671875,0.17531833052635193,-0.3121521472930908,-0.25595253705978394
1790334781567025400,6.978025390625,0.20463985204696655,-0.4453207552433014,-0.20952677726745605
1790334781583471600,6.9944716796875,0.1466076523065567,-0.4251621961593628,-0.3072652220726013
1790334781599932000,7.010931884765625,0.11056660860776901,-0.12828169763088226,-0.10751228034496307
1790334781616379600,7.027379638671875,0.07880161702632904,-0.016493361443281174,-0.07147123664617538
1790334781632848100,7.04384814453125,0.02626720629632473,0.07696902006864548,-0.02015855349600315
1790334781649326800,7.060326904296875,-0.025045474991202354,0.39645153284072876,0.1612684279680252
1790334781665774000,7.076774169921875,-0.0959058403968811,0.32498031854629517,0.24495697021484375
1790334781682219000,7.093218994140625,-0.2480112910270691,0.3628539443016052,0.41111230850219727
1790334781698669000,7.1096689453125,-0.5943718552589417,-0.2583959996700287,0.6505714654922485
1790334781715116000,7.126115966796875,-0.50335294008255,-0.2724458873271942,0.6633996367454529
1790334781731560700,7.142560791015625,-0.7250970602035522,-0.2223549485206604,0.9773843884468079
1790334781748005400,7.15900537109375,-0.504574716091156,0.4239404797554016,1.1276572942733765
1790334781764460500,7.17546044921875,0.04642575979232788,0.09896016865968704,0.04092797264456749
1790334781780902100,7.191902099609375,0.021991148591041565,-0.03420845419168472,-0.033597588539123535
1790334781797422000,7.208422119140625,0.0757472887635231,0.029932396486401558,0.05619960278272629
1790334781813884200,7.22488427734375,0.05803219974040985,0.0708603709936142,0.08552113175392151
1790334781830351400,7.241351318359375,-0.014049900695681572,0.036651913076639175,-0.01160643994808197
1790334781846814500,7.257814453125,-0.0006108652451075613,-0.05803219974040985,-0.08552113175392151
1790334781863257300,7.27425732421875,0.013439035043120384,-0.15271630883216858,-0.08124507963657379
1790334781879722500,7.290722412109375,0.0006108652451075613,-0.005497787147760391,-0.05497787147760391
1790334781896233700,7.307233642578125,0.09224065393209457,-0.04886921867728233,-0.051312681287527084
1790334781912680200,7.32368017578125,0.08674286305904388,-0.019547687843441963,-0.09162978827953339
1790334781929124900,7.340124755859375,0.24373523890972137,-0.04214970022439957,-0.3695734739303589
1790334781945574400,7.356574462890625,0.4789183437824249,0.08368854224681854,-0.6218608021736145
1790334781962019300,7.373019287109375,0.46731191873550415,-0.05192354694008827,-0.7202101349830627
1790334781978461200,7.389461181640625,0.2070833146572113,-0.5821545720100403,-0.48197266459465027
1790334781994907100,7.4059072265625,0.17592918872833252,-0.1472185254096985,-0.3579670190811157
1790334782011368000,7.422367919921875,0.09224065393209457,-0.4355469346046448,-0.3219259977340698
1790334782027816200,7.438816162109375,0.17348572611808777,-0.08002334833145142,-0.2736676335334778
1790334782044268300,7.455268310546875,0.15454891324043274,-0.32009339332580566,-0.19792033731937408
1790334782060728000,7.47172802734375,0.05253441259264946,-0.2791654169559479,-0.13744467496871948
1790334782077180400,7.488180419921875,0.028099801391363144,0.12828169763088226,0.031154127791523933
1790334782093630500,7.50463037109375,0.07391469180583954,0.6352998614311218,0.21319197118282318
1790334782110080300,7.521080322265625,0.14538592100143433,0.39156460762023926,-0.06414084881544113
1790334782126541800,7.537541748046875,0.20830504596233368,-0.1411098688840866,-0.3701843321323395
1790334782142987800,7.55398779296875,0.19547687470912933,0.1459967941045761,-0.19792033731937408
1790334782159434200,7.570434326171875,-0.005497787147760391,0.021991148591041565,-0.05253441259264946
1790334782175905000,7.586905029296875,0.04948008432984352,0.07941248267889023,0.2565633952617645
1790334782192363500,7.603363525390625,-0.0507018156349659,-0.025656340643763542,-0.02076941914856434
1790334782208860700,7.619860595703125,-0.014049900695681572,-0.001832595793530345,-0.08368854224681854
1790334782225327600,7.63632763671875,0.05619960278272629,-0.03176499158143997,-0.0708603709936142
1790334782241780700,7.65278076171875,0.0959058403968811,-0.02932153269648552,-0.02626720629632473
1790334782258246000,7.669245849609375,-0.004886921960860491,0.025045474991202354,-0.29077184200286865
1790334782274693000,7.685693115234375,0.003054326167330146,0.02076941914856434,0.019547687843441963
1790334782291188000,7.70218798828125,0.005497787147760391,0.05619960278272629,-0.014049900695681572
1790334782307670300,7.718670166015625,-0.01160643994808197,0.006108652334660292,-0.06719517707824707
1790334782324149500,7.7351494140625,0.015271631069481373,0.054367005825042725,-0.010995574295520782
1790334782340622300,7.751622314453125,0.02015855349600315,0.05314527451992035,0.02626720629632473
1790334782357090800,7.7680908203125,0.00366519158706069,0.02321287989616394,-0.010995574295520782
1790334782373613600,7.784613525390625,0.01710422709584236,-0.14294247329235077,-0.12339477986097336
1790334782390061800,7.801061767578125,0.04214970022439957,-0.7391469478607178,-0.303600013256073
1790334782406508800,7.8175087890625,0.013439035043120384,-0.02871066704392433,-0.06658431142568588
1790334782422976000,7.83397607421875,0.1258382350206375,-0.07757988572120667,-0.15515977144241333
1790334782439426800,7.8504267578125,0.06719517707824707,0.2590068578720093,0.054367005825042725
1790334782455878000,7.8668779296875,-0.00855211354792118,0.4905247986316681,0.09712757170200348
1790334782472329200,7.8833291015625,0.02321287989616394,-0.13500121235847473,-0.039095375686883926
1790334782488780000,7.899780029296875,0.006719517521560192,-0.11484266817569733,0.03298672288656235
1790334782505250600,7.91625048828125,-0.031154127791523933,-0.009162978269159794,-0.01038470957428217
1790334782521714200,7.932714111328125,-0.012828170321881771,-0.07147123664617538,-0.02871066704392433
1790334782538205700,7.949205810546875,-0.006719517521560192,-0.06352998316287994,0.039706241339445114
1790334782554669600,7.965669677734375,-0.01160643994808197,-0.1062905490398407,0.06352998316287994
1790334782571118800,7.982118896484375,0.03726277872920036,-0.042760565876960754,-0.010995574295520782
1790334782587607300,7.998607177734375,-0.00427605677396059,0.07757988572120667,0.042760565876960754
1790334782604069000,8.015069091796875,0.18631389737129211,0.09529497474431992,0.12034045159816742
1790334782620523300,8.031523193359375,0.22602014243602753,0.19792033731937408,0.2742784917354584
1790334782636968700,8.04796875,0.4184426963329315,0.029932396486401558,0.3628539443016052
1790334782653415400,8.06441552734375,0.6059783101081848,-0.1313360333442688,0.31520646810531616
1790334782669860000,8.080860107421875,0.34208452701568604,0.033597588539123535,0.303600013256073
1790334782686311000,8.097310791015625,0.2370157092809677,0.17287486791610718,0.19608774781227112
1790334782702756000,8.113756103515625,0.001832595793530345,0.13500121235847473,0.10812314599752426
1790334782719203600,8.13020361328125,0,0.3286454975605011,0.07757988572120667
1790334782735652400,8.14665234375,-0.03726277872920036,0.2919935882091522,0.00733038317412138
1790334782752104200,8.163104248046874,-0.05314527451992035,0.06719517707824707,-0.06719517707824707
1790334782768549000,8.179549072265624,-0.15332718193531036,0.4190535545349121,-0.1319468915462494
1790334782784996000,8.19599609375,-0.0910189226269722,0.9706648588180542,0.02382374368607998
1790334782801442300,8.2124423828125,0.45326200127601624,1.1050552129745483,0.33597588539123535
1790334782817891800,8.228891845703124,0.5167919993400574,-0.10506882518529892,0.17409659922122955
1790334782834341000,8.245341064453125,1.453248381614685,0.6811147332191467,0.9999864101409912
1790334782850792200,8.261792236328125,1.7757853269577026,0.7629706859588623,1.1948524713516235
1790334782867240700,8.27824072265625,1.6780468225479126,1.5656476020812988,0.3805690407752991
1790334782882661400,8.293661376953125,1.739133358001709,1.949881911277771,0.04214970022439957
1790334782899115800,8.31011572265625,1.2651019096374512,0.44287729263305664,0.7397578358650208
1790334782915566000,8.326566162109375,0.39706242084503174,-2.2742512226104736,-0.59803706407547
1790334782932022500,8.3430224609375,0.24556782841682434,-0.024434609338641167,0.10934487730264664
1790334782948475400,8.359475341796875,-0.19364428520202637,0.25473082065582275,0.24678955972194672
1790334782964926200,8.37592626953125,0.7257078886032104,1.2260065078735352,-0.8063421249389648
1790334782981376300,8.392376220703126,0.18631389737129211,0.30970868468284607,-1.10139000415802
1790334782997843500,8.408843505859375,0.17898350954055786,-0.11362093687057495,-0.5497786998748779
1790334783014292700,8.425292724609376,0.2028072625398636,0.4996877610683441,0.12278391420841217
1790334783030742000,8.441741943359375,0.1869247704744339,-0.15760323405265808,0.13988813757896423
1790334783047191800,8.45819189453125,0.27061331272125244,0.5015203952789307,0.38117989897727966
1790334783063695400,8.4746953125,0.5186246037483215,0.3139847218990326,0.2767219543457031
1790334783080181500,8.491181396484375,0.37690386176109314,0.3286454975605011,-0.2541199326515198
1790334783096630300,8.50763037109375,0.3433062732219696,0.34574973583221436,-0.5656611919403076
1790334783113093600,8.52409375,0.3121521472930908,0.12034045159816742,-0.485027015209198
1790334783129501700,8.540501708984374,0.04153883829712868,0.35552358627319336,-0.27122417092323303
1790334783145915000,8.556914794921875,-0.05009094998240471,0.003054326167330146,0.16982053220272064
1790334783162361300,8.573361328125,-0.13988813757896423,0.1368338167667389,0.16737708449363708
1790334783178818300,8.589818359375,-0.1362229436635971,-0.03298672288656235,0.29077184200286865
1790334783195260400,8.606260498046876,-0.11911872029304504,0.042760565876960754,0.28649580478668213
1790334783211704000,8.6227041015625,-0.11728613078594208,0.054367005825042725,0.16859880089759827
1790334783228150000,8.63914990234375,-0.0006108652451075613,-0.0806342139840126,0.018936822190880775
1790334783244615700,8.65561572265625,0.11545353382825851,0.0757472887635231,-0.17592918872833252
1790334783261059300,8.672059326171874,0.26511552929878235,0.3500257730484009,-0.5516113042831421
1790334783277506000,8.688506103515625,0.4544837474822998,0.5693264007568359,-0.9101892113685608
1790334783293949400,8.704949462890625,-0.23579397797584534,1.3341296911239624,-0.788627028465271
1790334783310393900,8.721393798828124,-0.24923302233219147,-0.02871066704392433,-0.04459316283464432
1790334783326840300,8.73784033203125,-0.24190263450145721,-0.027488935738801956,0.08185594528913498
1790334783343282400,8.754282470703124,-0.16920967400074005,-0.018936822190880775,0.10506882518529892
1790334783359731500,8.7707314453125,-0.10567969083786011,-0.036041051149368286,0.1612684279680252
1790334783376171300,8.787171142578124,-0.13866640627384186,-0.09529497474431992,-0.09529497474431992
1790334783392612600,8.803612548828125,-0.11362093687057495,-0.06902777403593063,-0.48319441080093384
1790334783408951300,8.819951416015625,0.06108652427792549,-0.17898350954055786,0.1007927656173706
1790334783425361200,8.836361083984375,-0.09040805697441101,-0.13866640627384186,0.06291911751031876
1790334783441799700,8.852799560546876,-0.2535090744495392,0.05314527451992035,-0.029932396486401558
1790334783458239500,8.869239501953125,-0.32559117674827576,0.23335053026676178,-0.13011430203914642
1790334783474682600,8.8856826171875,-0.46364670991897583,2.3243422508239746,-0.8038986921310425
1790334783491135200,8.90213525390625,-0.34025195240974426,2.5705208778381348,-0.8436049222946167
1790334783507573000,8.918572998046875,-0.030543262138962746,1.3463469743728638,-0.5021312236785889
1790334783524013800,8.935013916015626,0.01771509274840355,-0.027488935738801956,0.00427605677396059
1790334783540473600,8.9514736328125,-0.028099801391363144,0.03481931984424591,-0.018325956538319588
1790334783556962600,8.967962646484375,0.003054326167330146,0.009162978269159794,-0.025656340643763542
1790334783573441800,8.98444189453125,-0.025045474991202354,0.015271631069481373,-0.02382374368607998
1790334783589880300,9.00088037109375,0.11728613078594208,-0.08552113175392151,-0.0354301854968071
1790334783606342000,9.017341796875,0.00733038317412138,0.012217304669320583,0.006719517521560192
1790334783622800600,9.033800537109375,-0.02076941914856434,-0.024434609338641167,0.004886921960860491
1790334783639287800,9.050287841796875,-0.015271631069481373,-0.00733038317412138,0.016493361443281174
1790334783655766300,9.066766357421875,0.039095375686883926,-0.1313360333442688,0.08979719132184982
1790334783672214300,9.08321435546875,0.028099801391363144,0.24556782841682434,0.007941247895359993
1790334783688662500,9.09966259765625,0.001832595793530345,-0.06658431142568588,0.016493361443281174
1790334783705124000,9.1161240234375,-0.0507018156349659,-0.005497787147760391,0.009162978269159794
1790334783721616000,9.132615966796875,-0.04398229718208313,0.005497787147760391,-0.007941247895359993
1790334783738080300,9.149080322265625,0.09224065393209457,-0.18814650177955627,0.04703662544488907
1790334783754521900,9.16552197265625,-0.007941247895359993,-0.1014036312699318,0.015271631069481373
1790334783770963000,9.181962890625,-0.004886921960860491,0.02382374368607998,0.09040805697441101
1790334783787422200,9.198422119140625,0.04153883829712868,0.018936822190880775,0.12217304855585098
1790334783803861800,9.21486181640625,-0.1014036312699318,-0.1362229436635971,-0.08124507963657379
1790334783820317400,9.2313173828125,0.039095375686883926,0.08796459436416626,0.16432274878025055
1790334783836760300,9.24776025390625,-0.02015855349600315,-0.07269296050071716,0.02382374368607998
1790334783853208600,9.26420849609375,-0.06963863968849182,-0.08185594528913498,0.02015855349600315
1790334783869616600,9.28061669921875,-0.04764748737215996,-0.045204028487205505,0.07147123664617538
1790334783886107000,9.29710693359375,-0.02687807008624077,-0.06414084881544113,0.08124507963657379
1790334783902556000,9.313555908203124,-0.13316862285137177,-0.05925392732024193,0.033597588539123535
1790334783919003000,9.3300029296875,-0.06230825558304787,-0.18936823308467865,-0.051312681287527084
1790334783935466800,9.346466796875,-0.012217304669320583,0.10384709388017654,0.07452555745840073
1790334783951912200,9.362912109375,-0.027488935738801956,0.14355333149433136,-0.00427605677396059
1790334783968357000,9.379357177734375,0.016493361443281174,-0.2681698501110077,-0.025045474991202354
1790334783984807000,9.395806884765625,-0.022602014243602753,0.2015855312347412,0.07880161702632904
1790334784001251300,9.412251220703125,-0.02871066704392433,-0.048258353024721146,-0.0024434609804302454
1790334784017746000,9.428745849609374,-0.024434609338641167,-0.17776179313659668,-0.03237585723400116
1790334784034189600,9.445189453125,-0.00366519158706069,0.1466076523065567,0.051312681287527084
1790334784050633700,9.4616337890625,-0.07696902006864548,-0.021380282938480377,0.0012217304902151227
1790334784067100200,9.47810009765625,-0.025045474991202354,-0.10567969083786011,-0.05253441259264946
1790334784083651600,9.494651611328125,-0.03176499158143997,0.04642575979232788,0.015271631069481373
1790334784100053200,9.51105322265625,-0.021991148591041565,-0.031154127791523933,-0.00366519158706069
1790334784116405500,9.527405517578124,0.04153883829712868,-0.23273965716362,0.006108652334660292
1790334784132848600,9.5438486328125,-0.02626720629632473,0.08735372871160507,0.04886921867728233
1790334784149328600,9.56032861328125,-0.02015855349600315,0.02626720629632473,0.016493361443281174
1790334784165776000,9.57677587890625,-0.0012217304902151227,-0.1007927656173706,-0.01160643994808197
1790334784182238500,9.593238525390625,0.005497787147760391,0.12522737681865692,0.036041051149368286
1790334784198677000,9.609677001953125,-0.03848451003432274,-0.11667526513338089,-0.003054326167330146
1790334784215116300,9.6261162109375,0.03298672288656235,-0.08368854224681854,-0.018936822190880775
1790334784231596000,9.642595947265624,-0.054367005825042725,0.039706241339445114,0.03176499158143997
1790334784248035800,9.659035888671875,-0.012217304669320583,0.001832595793530345,0.00427605677396059
1790334784264525800,9.67552587890625,0.04153883829712868,-0.17348572611808777,-0.024434609338641167
1790334784280966000,9.6919658203125,-0.005497787147760391,0.14477506279945374,0.039706241339445114
1790334784297450500,9.708450439453125,-0.007941247895359993,0.0555887371301651,0.006108652334660292
1790334784313928200,9.72492822265625,-0.00855211354792118,-0.08368854224681854,0.00366519158706069
1790334784330371300,9.741371337890625,0.01038470957428217,0.1417207419872284,0.036651913076639175
1790334784346829600,9.75782958984375,-0.05314527451992035,-0.033597588539123535,0.007941247895359993
1790334784363288600,9.77428857421875,0.02871066704392433,-0.07269296050071716,-0.04459316283464432
1790334784379733800,9.790733642578125,-0.03726277872920036,0.0659734457731247,-0.009162978269159794
1790334784396216000,9.807216064453126,-0.022602014243602753,0.06230825558304787,-0.03420845419168472
1790334784412668200,9.823668212890626,0.10690141469240189,-0.12278391420841217,0.0659734457731247
1790334784429115100,9.840115234375,-0.02871066704392433,0.10445795953273773,0.05742133408784866
1790334784445557000,9.856556884765626,0.022602014243602753,0.02382374368607998,0.015271631069481373
1790334784462046700,9.873046630859376,-0.014049900695681572,0.02871066704392433,0.01038470957428217
1790334784478529000,9.889529052734375,0.01160643994808197,0.05009094998240471,-0.004886921960860491
1790334784494974500,9.905974365234375,-0.07819075137376785,-0.06658431142568588,0.03298672288656235
1790334784511440400,9.9224404296875,0.00366519158706069,-0.10445795953273773,-0.021991148591041565
1790334784527880200,9.938880126953125,-0.0403171069920063,-0.029932396486401558,0.039095375686883926
1790334784544367900,9.955367919921875,-0.012217304669320583,-0.06352998316287994,0.01038470957428217
1790334784560832500,9.97183251953125,0.02015855349600315,-0.12034045159816742,0.054367005825042725
1790334784577274000,9.988274169921874,-0.007941247895359993,0.07452555745840073,0.06414084881544113
1790334784593784000,10.0047841796875,-0.00855211354792118,-0.001832595793530345,0.02932153269648552
1790334784610244900,10.021244873046875,-0.019547687843441963,0.01038470957428217,-0.006108652334660292
1790334784626732000,10.03773193359375,-0.04092797264456749,0.11362093687057495,0.007941247895359993
1790334784643179000,10.054178955078125,0,-0.22846360504627228,0.025656340643763542
1790334784659624400,10.07062451171875,0.027488935738801956,-0.16493362188339233,0.025045474991202354
1790334784676088000,10.087088134765626,-0.06414084881544113,-0.04337143152952194,0.006719517521560192
1790334784692546300,10.10354638671875,-0.0024434609804302454,0.12095131725072861,0.016493361443281174
1790334784708985300,10.1199853515625,0.05375614017248154,-0.13316862285137177,0.0006108652451075613
1790334784725429200,10.13642919921875,-0.0708603709936142,-0.014049900695681572,0.09040805697441101
1790334784741868300,10.152868408203124,-0.06291911751031876,-0.033597588539123535,0.048258353024721146
1790334784758357800,10.169357666015625,-0.012828170321881771,0.10018189996480942,0.03481931984424591
1790334784774799400,10.18579931640625,0.0006108652451075613,0.32681289315223694,-0.030543262138962746
1790334784791284500,10.202284423828125,-0.00855211354792118,-0.1472185254096985,-0.019547687843441963
1790334784807730700,10.218730712890626,0.036651913076639175,-0.2431243658065796,-0.015271631069481373
1790334784824175000,10.235175048828125,-0.06719517707824707,-0.13316862285137177,-0.007941247895359993
1790334784840641800,10.251641845703125,-0.019547687843441963,0.04948008432984352,-0.01038470957428217
1790334784857099500,10.268099609375,0.019547687843441963,0.16798794269561768,0.06841690838336945
1790334784873540900,10.284540771484375,0.003054326167330146,0.04092797264456749,0.02871066704392433
1790334784890002000,10.301001953125,-0.018936822190880775,-0.015882495790719986,0.00733038317412138
1790334784906500900,10.3175009765625,-0.015271631069481373,0.07024950534105301,0.025045474991202354
1790334784923011000,10.334010986328124,0.010995574295520782,0.2718350291252136,-0.019547687843441963
1790334784939455500,10.35045556640625,-0.0006108652451075613,-0.0659734457731247,-0.02321287989616394
1790334784955946500,10.366946533203125,0.04948008432984352,-0.1411098688840866,-0.036041051149368286
1790334784972426500,10.383426513671875,-0.05742133408784866,-0.04337143152952194,-0.025656340643763542
1790334784988874000,10.3998740234375,0.00733038317412138,-0.033597588539123535,-0.04581489413976669
1790334785005368600,10.41636865234375,0.0354301854968071,-0.07024950534105301,-0.022602014243602753
1790334785021828000,10.432828125,-0.00427605677396059,0.03726277872920036,0.0354301854968071
1790334785038273000,10.44927294921875,0.00733038317412138,0.001832595793530345,0.012217304669320583
1790334785054733300,10.4657333984375,-0.009773843921720982,0.06169738993048668,0.021380282938480377
1790334785071185200,10.48218505859375,0.04092797264456749,0.18875735998153687,0.0024434609804302454
1790334785087547000,10.498546875,-0.022602014243602753,-0.039706241339445114,-0.04337143152952194
1790334785103972600,10.51497265625,0.00427605677396059,-0.15577064454555511,-0.07635815441608429
1790334785120462800,10.531462890625,-0.01710422709584236,-0.07819075137376785,-0.03176499158143997
1790334785136948000,10.547947998046874,-0.006719517521560192,0.07696902006864548,-0.05742133408784866
1790334785153399800,10.56439990234375,0.033597588539123535,-0.18875735998153687,-0.06780604273080826
1790334785169868300,10.580868408203125,0.031154127791523933,-0.04092797264456749,0.012217304669320583
1790334785186326800,10.597326904296875,0.027488935738801956,0.04948008432984352,0.04337143152952194
1790334785202816000,10.61381591796875,0.003054326167330146,0.039706241339445114,0.016493361443281174
1790334785219279000,10.630279052734375,0.031154127791523933,0.23335053026676178,0.036651913076639175
1790334785235719700,10.6467197265625,-0.027488935738801956,0.010995574295520782,0.02626720629632473
1790334785252209400,10.66320947265625,-0.08735372871160507,-0.11239920556545258,-0.03298672288656235
1790334785268649200,10.679649169921875,0.02076941914856434,0.03726277872920036,0.00855211354792118
1790334785285136600,10.69613671875,-0.01771509274840355,0.294437050819397,-0.02871066704392433
1790334785301604600,10.7126044921875,0.033597588539123535,-0.1258382350206375,-0.006108652334660292
1790334785318051300,10.72905126953125,-0.06841690838336945,-0.15332718193531036,-0.02076941914856434
1790334785334510000,10.745510009765624,0.04581489413976669,-0.20586158335208893,-0.05497787147760391
1790334785350956300,10.761956298828125,-0.01466076634824276,0.15821409225463867,-0.05497787147760391
1790334785367448300,10.7784482421875,0.009162978269159794,0.039706241339445114,0.0403171069920063
1790334785383936300,10.794936279296875,-0.13500121235847473,-0.00427605677396059,-0.015882495790719986
1790334785400394200,10.811394287109374,-0.04642575979232788,0.009162978269159794,0.07208210229873657
1790334785416910000,10.82791015625,-0.06108652427792549,-0.018936822190880775,-0.028099801391363144
1790334785433374500,10.84437451171875,0.06780604273080826,0.05314527451992035,0.09834930300712585
1790334785449865200,10.860865234375,-0.08429940044879913,-0.028099801391363144,-0.01466076634824276
1790334785466351000,10.87735107421875,0.010995574295520782,0.029932396486401558,0.006719517521560192
1790334785482804500,10.893804443359375,-0.01466076634824276,-0.060475658625364304,0.02321287989616394
1790334785499301000,10.910301025390625,-0.08735372871160507,-0.016493361443281174,-0.016493361443281174
1790334785515763700,10.926763671875,-0.014049900695681572,-0.17898350954055786,-0.003054326167330146
1790334785532207600,10.94320751953125,-0.059864792972803116,0.13255776464939117,0.06475171446800232
1790334785548654300,10.959654296875,0.06475171446800232,-0.15027284622192383,0.06902777403593063
1790334785565098000,10.976097900390625,-0.14355333149433136,-0.08185594528913498,-0.01160643994808197
1790334785581558500,10.99255859375,0.009773843921720982,-0.3549126982688904,0.06230825558304787
1790334785598001700,11.009001708984375,-0.14049901068210602,0.2528982162475586,0.06902777403593063
1790334785614445000,11.025445068359375,-0.007941247895359993,-0.14538592100143433,0.004886921960860491
1790334785630893000,11.04189306640625,-0.17837265133857727,0.11239920556545258,0.06169738993048668
1790334785647345700,11.058345703125,0.039095375686883926,-0.2877175211906433,0.10018189996480942
1790334785663813400,11.0748134765625,-0.04642575979232788,-0.045204028487205505,0.08918632566928864
1790334785680256000,11.091256103515626,-0.16982053220272064,0.10690141469240189,-0.0861319974064827
1790334785696697900,11.10769775390625,-0.02932153269648552,-0.2742784917354584,-0.019547687843441963
1790334785713149700,11.124149658203125,0.06352998316287994,0.08979719132184982,0.2223549485206604
1790334785729592000,11.140592041015625,-0.13439035415649414,0.06414084881544113,0.03726277872920036
1790334785746037200,11.157037353515625,-0.11484266817569733,-0.20586158335208893,0.09040805697441101
1790334785762480400,11.17348046875,-0.05192354694008827,0.06414084881544113,0.12339477986097336
1790334785778923500,11.189923583984376,0.04948008432984352,0.00855211354792118,0.10690141469240189
1790334785795369000,11.206368896484374,0.060475658625364304,0.19364428520202637,0.13011430203914642
1790334785811812400,11.222812255859376,-0.09773843735456467,0.05253441259264946,0.05009094998240471
1790334785828258600,11.239258544921874,-0.08857546001672745,0.2919935882091522,0.04886921867728233
1790334785844699100,11.25569921875,-0.02871066704392433,-0.056810468435287476,0.08979719132184982
1790334785861141800,11.272141845703125,-0.08918632566928864,-0.1814269721508026,-0.01466076634824276
1790334785877584400,11.28858447265625,0.04581489413976669,0.251676470041275,0.11850785464048386
1790334785893971200,11.30497119140625,0.03481931984424591,0.015882495790719986,0.07757988572120667
1790334785910483700,11.321483642578125,-0.11850785464048386,0.24007004499435425,0.18570303916931152
1790334785926923300,11.33792333984375,-0.11911872029304504,-0.02626720629632473,0.16371189057826996
1790334785943410000,11.354409912109375,-0.14782938361167908,-0.14782938361167908,0.13988813757896423
1790334785959868200,11.3708681640625,-0.17287486791610718,-0.11850785464048386,-0.051312681287527084
1790334785976307500,11.387307373046875,-0.027488935738801956,-0.1771509200334549,-0.02687807008624077
1790334785992751900,11.403751953125,0.009162978269159794,0.25045475363731384,0.2217440903186798
1790334786009192200,11.420192138671876,-0.1007927656173706,-0.0024434609804302454,0.039095375686883926
1790334786025634300,11.43663427734375,-0.11362093687057495,0.3139847218990326,0.05619960278272629
1790334786042084400,11.45308447265625,0.05009094998240471,-0.08796459436416626,0.018325956538319588
1790334786058427600,11.469427734375,-0.006719517521560192,-0.04703662544488907,-0.09773843735456467
1790334786074891000,11.48589111328125,0.03726277872920036,0.2480112910270691,-0.001832595793530345
1790334786091332400,11.502332275390625,0.056810468435287476,-0.09896016865968704,-0.04337143152952194
1790334786107633000,11.5186328125,-0.06780604273080826,0.16982053220272064,0.1563815027475357
1790334786124084200,11.535084228515625,-0.08735372871160507,-0.1014036312699318,0.01038470957428217
1790334786140531500,11.551531494140624,-0.14905111491680145,0.1007927656173706,0.07147123664617538
1790334786156984300,11.567984375,-0.03420845419168472,-0.03298672288656235,-0.04642575979232788
1790334786173443600,11.584443603515625,-0.01466076634824276,-0.12217304855585098,-0.1258382350206375
1790334786189884000,11.6008837890625,0.08857546001672745,0.2834414839744568,0.1319468915462494
1790334786206338800,11.6173388671875,0.06352998316287994,-0.0555887371301651,0.021991148591041565
1790334786222775000,11.633775146484375,-0.11850785464048386,0.29565876722335815,0.11484266817569733
1790334786239213600,11.650213623046875,-0.036651913076639175,0.009162978269159794,0.012217304669320583
1790334786255668700,11.666668701171876,-0.016493361443281174,-0.1814269721508026,-0.03237585723400116
1790334786272106800,11.683106689453124,0.02015855349600315,0.3237585723400116,0.04214970022439957
1790334786288547800,11.6995478515625,0.06414084881544113,-0.07269296050071716,-0.2076941877603531
1790334786304984300,11.715984375,0.1368338167667389,0.24862214922904968,0.05742133408784866
1790334786321438200,11.732438232421876,0.005497787147760391,-0.1771509200334549,-0.05864306539297104
1790334786337873000,11.748872802734375,-0.14416420459747314,0.21502456068992615,0.016493361443281174
1790334786354309400,11.765309326171876,0.11545353382825851,-0.13500121235847473,-0.06291911751031876
1790334786370753000,11.7817529296875,-0.001832595793530345,-0.15882496535778046,-0.019547687843441963
1790334786387200300,11.7982001953125,-0.016493361443281174,0.2993239760398865,0.05314527451992035
1790334786403643400,11.814643310546876,0.06841690838336945,-0.17898350954055786,-0.17104226350784302
1790334786420081700,11.83108154296875,0.1569923609495163,0.23090706765651703,0.16798794269561768
1790334786436516600,11.8475166015625,-0.018936822190880775,-0.021380282938480377,0.02321287989616394
1790334786452974800,11.863974853515625,-0.18875735998153687,0.3579670190811157,0.039095375686883926
1790334786469412600,11.88041259765625,0.08552113175392151,-0.20341812074184418,-0.048258353024721146
1790334786485848800,11.896848876953126,-0.018936822190880775,-0.08552113175392151,-0.010995574295520782
1790334786502306000,11.91330615234375,0.001832595793530345,0.14905111491680145,0.054367005825042725
1790334786518740000,11.929739990234374,0.04764748737215996,-0.04948008432984352,-0.17898350954055786
1790334786535179300,11.94617919921875,0.12950342893600464,0.3988949954509735,0.1062905490398407
1790334786551613200,11.96261328125,0.08307767659425735,-0.0555887371301651,-0.022602014243602753
1790334786568065000,11.97906494140625,-0.21135938167572021,0.3445279896259308,-0.04703662544488907
1790334786584498200,11.995498291015625,0.08185594528913498,-0.11239920556545258,-0.036651913076639175
1790334786600935000,12.011934814453125,0.014049900695681572,-0.05619960278272629,-0.060475658625364304
1790334786617391400,12.028391357421874,0.10873401165008545,0.26083946228027344,0.1111774742603302
1790334786633835800,12.044835693359374,-0.003054326167330146,-0.07696902006864548,-0.20036379992961884
1790334786650285000,12.06128515625,0.13500121235847473,0.38240164518356323,0.06963863968849182
1790334786666720800,12.077720703125,-0.027488935738801956,0.014049900695681572,-0.0012217304902151227
1790334786683159800,12.094159912109374,-0.15393804013729095,0.29016098380088806,0
1790334786699614200,12.1106142578125,-0.04459316283464432,-0.039095375686883926,0.001832595793530345
1790334786716051200,12.12705126953125,-0.11178833991289139,-0.03298672288656235,0.02626720629632473
1790334786732489700,12.14348974609375,0.05864306539297104,-0.10812314599752426,0.10384709388017654
1790334786748925400,12.159925537109375,-0.08002334833145142,0.06841690838336945,-0.10018189996480942
1790334786765363500,12.176363525390625,0.10812314599752426,0.43615779280662537,0.1319468915462494
1790334786781801200,12.19280126953125,0.11545353382825851,0.05925392732024193,0.04398229718208313
1790334786798240800,12.20924072265625,-0.15393804013729095,0.2730567753314972,0.08857546001672745
1790334786814694400,12.2256943359375,-0.14233160018920898,-0.11362093687057495,-0.02687807008624077
1790334786831134500,12.242134521484376,-0.1973094791173935,0.2742784917354584,-0.019547687843441963
1790334786847571700,12.25857177734375,0.13377949595451355,0.09407325088977814,0.18509216606616974
1790334786864022800,12.275022705078126,0.007941247895359993,-0.07208210229873657,-0.10262536257505417
1790334786880427300,12.29142724609375,0.14416420459747314,0.42699480056762695,0.029932396486401558
1790334786896854500,12.3078544921875,0.2681698501110077,0.4001167416572571,-0.07696902006864548
1790334786913294300,12.32429443359375,0.06963863968849182,0.29993483424186707,-0.004886921960860491
1790334786929735200,12.340735107421875,0.06169738993048668,0.28955012559890747,0.1716531366109848
1790334786946194200,12.357194091796876,-0.22479841113090515,0.1618792861700058,-0.17043140530586243
1790334786962635800,12.3736357421875,0.09651670604944229,0.28588494658470154,0.3182607889175415
1790334786979080400,12.39008056640625,-0.09040805697441101,-0.16004669666290283,-0.036651913076639175
1790334786995520300,12.406520263671876,-0.0806342139840126,0.4001167416572571,0.2474004179239273
1790334787011960300,12.422960205078125,-0.04153883829712868,-0.16371189057826996,-0.25106561183929443
1790334787028404700,12.43940478515625,0.03481931984424591,0.43249258399009705,0.17409659922122955
1790334787044846600,12.4558466796875,0.02076941914856434,0.01771509274840355,0.04581489413976669
1790334787061352400,12.4723525390625,-0.12278391420841217,0.4153883755207062,0.07269296050071716
1790334787077791200,12.488791259765625,0.00427605677396059,0.1966986060142517,0.14355333149433136
1790334787094174000,12.505174072265625,-0.12339477986097336,0.05375614017248154,-0.05253441259264946
1790334787110612500,12.521612548828125,0.08857546001672745,0.2070833146572113,0.2681698501110077
1790334787127020300,12.538020263671875,-0.12889257073402405,-0.2480112910270691,-0.12889257073402405
1790334787143458600,12.55445849609375,-0.1514945775270462,0.4306600093841553,0.1661553531885147
1790334787159894800,12.570894775390625,0.04153883829712868,0.19853121042251587,-0.02321287989616394
1790334787176331800,12.587331787109376,-0.09040805697441101,0.07513642311096191,0.0806342139840126
1790334787192777200,12.603777099609376,-0.10018189996480942,0.5522221922874451,0.33719760179519653
1790334787209216500,12.620216552734375,-0.37079519033432007,0.25106561183929443,-0.12828169763088226
1790334787225655300,12.6366552734375,-0.06414084881544113,0.3433062732219696,0.26939156651496887
1790334787242091800,12.653091796875,-0.03176499158143997,0.01038470957428217,0.13927727937698364
1790334787258530000,12.669530029296874,-0.07757988572120667,0.2028072625398636,0.2718350291252136
1790334787274969300,12.68596923828125,-0.14049901068210602,-0.004886921960860491,-0.015271631069481373
1790334787291405600,12.702405517578125,-0.0910189226269722,0.6389650702476501,0.22296582162380219
1790334787307857400,12.718857421875,-0.02321287989616394,0.08674286305904388,0.40622538328170776
1790334787324293400,12.73529345703125,-0.3274237811565399,0.32559117674827576,0.16432274878025055
1790334787340729000,12.75172900390625,-0.34758231043815613,0.3481931984424591,0.6151412725448608
1790334787357163500,12.76816357421875,-0.3335324227809906,-0.02871066704392433,0.03420845419168472
1790334787373604000,12.78460400390625,-0.04703662544488907,0.39706242084503174,0.5864306092262268
1790334787390040800,12.801040771484375,-0.13072516024112701,0.11850785464048386,0.11423180252313614
1790334787406475800,12.817475830078125,-0.21868975460529327,0.6444628238677979,0.24984388053417206
1790334787422910200,12.83391015625,0.14355333149433136,0.5992587804794312,0.23457226157188416
1790334787439363600,12.850363525390625,-0.1508837193250656,0.7305948138237,0.26572638750076294
1790334787455803400,12.866803466796876,-0.06291911751031876,0.02932153269648552,0.3854559659957886
1790334787472237600,12.883237548828125,-0.24984388053417206,0.5558874011039734,0.2278527319431305
1790334787488672300,12.89967236328125,-0.17470745742321014,0.5271766781806946,0.4648684561252594
1790334787505109200,12.916109130859375,-0.3488040566444397,0.475253164768219,-0.016493361443281174
1790334787521545000,12.932544921875,-0.04092797264456749,0.4086688458919525,0.30604347586631775
1790334787537985500,12.948985595703125,0.007941247895359993,0.33108896017074585,0.13316862285137177
1790334787554438000,12.96543798828125,0.007941247895359993,0.37201693654060364,0.22907446324825287
1790334787570877200,12.981877197265625,-0.1411098688840866,-0.045204028487205505,-0.021380282938480377
1790334787587313400,12.9983134765625,-0.16859880089759827,0.7055493593215942,0.06719517707824707
1790334787603749400,13.014749267578125,0.19914206862449646,0.4056145250797272,0.4306600093841553
1790334787620195800,13.03119580078125,-0.056810468435287476,0.21074850857257843,0.1368338167667389
1790334787636637000,13.047636962890625,-0.17348572611808777,0.4764748811721802,0.5455026626586914
1790334787653075700,13.06407568359375,-0.26083946228027344,0.3530801236629486,0.08552113175392151
1790334787669514500,13.080514404296874,-0.17470745742321014,0.455705463886261,0.5516113042831421
1790334787685966800,13.096966796875,-0.44593164324760437,0.32559117674827576,-0.09773843735456467
1790334787702404400,13.113404296875,0.025656340643763542,0.21502456068992615,0.4599815309047699
1790334787718841900,13.129841796875,-0.12339477986097336,-0.4092797040939331,-0.22113321721553802
1790334787735279000,13.146279052734375,-0.009773843921720982,0.15515977144241333,0.18570303916931152
1790334787751717600,13.162717529296875,0.3854559659957886,0.7024950385093689,0.2993239760398865
1790334787768154000,13.179154052734376,-0.03726277872920036,0.2626720666885376,-0.0757472887635231
1790334787784590300,13.19559033203125,0.2669481039047241,0.2571742534637451,0.09040805697441101
1790334787801033000,13.212032958984375,-0.04581489413976669,0.39584067463874817,0.05803219974040985
1790334787817467400,13.22846728515625,0.10690141469240189,-0.05619960278272629,0.4447098970413208
1790334787833903600,13.244903564453125,-0.17531833052635193,0.2938261926174164,-0.06352998316287994
1790334787850338300,13.26133837890625,-0.10873401165008545,0.33108896017074585,0.16432274878025055
1790334787866781200,13.27778125,-0.14905111491680145,0.23518311977386475,-0.1459967941045761
1790334787883219200,13.29421923828125,-0.04886921867728233,-0.23396138846874237,-0.08002334833145142
1790334787899654100,13.310654052734375,-0.001832595793530345,-0.21624629199504852,-0.11301007121801376
1790334787916093200,13.32709326171875,0.20097467303276062,0.22540926933288574,0.2119702398777008
1790334787932537300,13.343537353515625,-0.10506882518529892,-0.5467243790626526,-0.06780604273080826
1790334787948975600,13.3599755859375,-0.025656340643763542,0.26450464129447937,0.1563815027475357
1790334787965412900,13.376412841796874,-0.07269296050071716,-0.7287622094154358,-0.36102136969566345
1790334787981853700,13.392853759765625,-0.1875356286764145,0.5229006409645081,-0.01710422709584236
1790334787998292500,13.40929248046875,0.19058994948863983,0.03787364438176155,0.49724429845809937
1790334788014731300,13.425731201171875,-0.24495697021484375,-0.19058994948863983,0.021991148591041565
1790334788031167700,13.442167724609375,-0.0910189226269722,0.31031954288482666,0.5002986192703247
1790334788047619300,13.458619384765624,-0.2541199326515198,-0.3078760802745819,-0.11484266817569733
1790334788064058000,13.47505810546875,-0.17470745742321014,0.4343251883983612,0.24678955972194672
1790334788080485600,13.491485595703125,-0.13439035415649414,0.192422553896904,-0.0507018156349659
1790334788096921000,13.507921142578125,-0.012828170321881771,-0.10873401165008545,0.00855211354792118
1790334788113367800,13.524367919921875,-0.030543262138962746,-0.2767219543457031,-0.07880161702632904
1790334788129844000,13.540843994140625,0.17409659922122955,0.7605272531509399,0.07941248267889023
1790334788146279700,13.55727978515625,-0.025045474991202354,-0.1612684279680252,-0.07513642311096191
1790334788162715000,13.57371484375,-0.012828170321881771,0.48380526900291443,-0.05864306539297104
1790334788179030800,13.59003076171875,0.031154127791523933,-0.4282165467739105,-0.024434609338641167
1790334788195517400,13.606517333984375,-0.1569923609495163,0.5638286471366882,-0.003054326167330146
1790334788211955500,13.62295556640625,0.17959438264369965,0.015271631069481373,0.3689626157283783
1790334788228388900,13.639388916015625,-0.23579397797584534,0.40194934606552124,-0.006719517521560192
1790334788244825300,13.655825439453125,0.1014036312699318,0.4043927788734436,0.3701843321323395
1790334788261259800,13.672259765625,-0.05742133408784866,0.19303341209888458,0.06230825558304787
1790334788277695500,13.688695556640624,-0.12400564551353455,0.07452555745840073,0.24129177629947662
1790334788294148900,13.70514892578125,-0.34513887763023376,0.4440990388393402,0.1569923609495163
1790334788310587600,13.721587646484375,-0.1466076523065567,0.3494149148464203,0.39767327904701233
1790334788327026200,13.738026123046875,-0.25534167885780334,-0.3689626157283783,-0.0012217304902151227
1790334788343465000,13.75446484375,0.09040805697441101,0.5015203952789307,0.303600013256073
1790334788359909000,13.7709091796875,-0.3445279896259308,-0.0659734457731247,-0.02321287989616394
1790334788376350200,13.78735009765625,0.030543262138962746,0.48747047781944275,0.20586158335208893
1790334788392786700,13.80378662109375,-0.005497787147760391,0.11362093687057495,0.1368338167667389
1790334788409223200,13.82022314453125,0.0708603709936142,0.15943582355976105,0.1111774742603302
1790334788425666000,13.836666015625,-0.152105450630188,-0.20341812074184418,0.06475171446800232
1790334788442103800,13.853103759765625,-0.045204028487205505,0.2987131178379059,0.23090706765651703
1790334788458542000,13.8695419921875,0.015271631069481373,-0.40622538328170776,0.04581489413976669
1790334788474980000,13.88597998046875,-0.05497787147760391,0.34147366881370544,0.07330382615327835
1790334788491419000,13.9024189453125,-0.11911872029304504,-0.4960225820541382,0.01038470957428217
1790334788507856400,13.9188564453125,-0.28649580478668213,0.5943718552589417,-0.0006108652451075613
1790334788524293400,13.93529345703125,0.251676470041275,0.14966198801994324,0.4001167416572571
1790334788540744000,13.951743896484375,-0.12278391420841217,0.44654250144958496,-0.04764748737215996
1790334788557181700,13.968181640625,-0.036651913076639175,-0.26022860407829285,-0.059864792972803116
1790334788573618400,13.984618408203126,-0.2687807083129883,1.0097602605819702,-0.025656340643763542
1790334788590055400,14.001055419921874,0.2535090744495392,-0.1466076523065567,0.28649580478668213
1790334788606495200,14.0174951171875,-0.02932153269648552,-0.1160643994808197,-0.06902777403593063
1790334788622928600,14.0339287109375,-0.13744467496871948,0.05253441259264946,0.17898350954055786
1790334788639360300,14.0503603515625,-0.09346238523721695,0.5595525503158569,0.15027284622192383
1790334788655792600,14.066792724609375,-0.05619960278272629,-0.06475171446800232,0.0806342139840126
1790334788672234200,14.083234130859376,-0.13927727937698364,0.11423180252313614,0.039706241339445114
1790334788688669000,14.0996689453125,0.15027284622192383,0.19792033731937408,0.17898350954055786
1790334788705109500,14.116109619140625,-0.21930062770843506,0.02932153269648552,-0.12034045159816742
1790334788721544000,14.1325439453125,-0.09162978827953339,0.31581732630729675,0.05253441259264946
1790334788737978400,14.148978271484374,0.03176499158143997,0.09651670604944229,0.29504790902137756
1790334788754413600,14.16541357421875,-0.04948008432984352,-0.38117989897727966,0.04581489413976669
1790334788770847200,14.18184716796875,-0.2993239760398865,-0.09529497474431992,0.13316862285137177
1790334788787294700,14.198294677734374,-0.054367005825042725,-0.17837265133857727,-0.024434609338641167
1790334788803730400,14.21473046875,-0.3017674386501312,-0.19303341209888458,0.015271631069481373
1790334788820166000,14.231165771484376,0.0861319974064827,0.32498031854629517,0.2076941877603531
1790334788836619300,14.247619384765626,-0.07819075137376785,-0.41172316670417786,-0.1264491081237793
1790334788853058600,14.26405859375,0.192422553896904,0.02932153269648552,0.0806342139840126
1790334788869499600,14.280499755859376,-0.16859880089759827,-0.9395107626914978,-0.2577851414680481
1790334788885837800,14.296837890625,-0.060475658625364304,0.192422553896904,0.11545353382825851
1790334788902239500,14.313239501953126,0.3530801236629486,-0.12889257073402405,0.24007004499435425
1790334788918556400,14.329556396484374,-0.08002334833145142,-0.34147366881370544,-0.23884831368923187
1790334788934995700,14.34599560546875,0.09468411654233932,-0.5534439086914062,-0.06352998316287994
1790334788951438600,14.3624384765625,-0.19058994948863983,0.617584764957428,0.00733038317412138
1790334788967871200,14.378871337890626,0.12950342893600464,-0.17592918872833252,0.07147123664617538
1790334788984306700,14.395306640625,-0.07880161702632904,-0.05864306539297104,-0.0555887371301651
1790334789000748500,14.41174853515625,0.05864306539297104,-0.8704829812049866,-0.0806342139840126
1790334789017184500,14.4281845703125,-0.1270599663257599,0.19547687470912933,0.09712757170200348
1790334789033646600,14.444646484375,0.16371189057826996,0.02871066704392433,0.27550023794174194
1790334789050081800,14.461081787109375,-0.2431243658065796,0.004886921960860491,-0.08552113175392151
1790334789066518000,14.47751806640625,0.013439035043120384,0.06780604273080826,0.25961771607398987
1790334789082868500,14.493868408203125,-0.08552113175392151,-0.37568211555480957,-0.1313360333442688
1790334789099278300,14.5102783203125,-0.10812314599752426,-0.23273965716362,0.02932153269648552
1790334789115644700,14.526644775390626,-0.2565633952617645,0.3854559659957886,0.1417207419872284
1790334789132080400,14.543080322265626,0.012828170321881771,-0.005497787147760391,0.11301007121801376
1790334789148550700,14.559550537109375,-0.25534167885780334,-0.06230825558304787,-0.04459316283464432
1790334789165010200,14.57601025390625,0.14049901068210602,0.14233160018920898,0.06719517707824707
1790334789181447200,14.592447265625,-0.15821409225463867,-0.37690386176109314,-0.07269296050071716
1790334789197889800,14.608889892578125,0.036041051149368286,0.31093040108680725,0.1062905490398407
1790334789214324000,14.625323974609374,-0.323147714138031,-0.39156460762023926,-0.08246681094169617
1790334789230762200,14.64176220703125,-0.060475658625364304,0.04948008432984352,0.21807889640331268
1790334789247203300,14.658203369140624,-0.19486601650714874,-0.7275404930114746,-0.0757472887635231
1790334789263638800,14.674638671875,0.08368854224681854,0.05009094998240471,0.23640485107898712
1790334789280091600,14.691091552734376,-0.21441370248794556,-0.598647952079773,-0.1820378452539444
1790334789296526800,14.70752685546875,0.09285151958465576,0.24068090319633484,0.05314527451992035
1790334789312962300,14.72396240234375,-0.10018189996480942,-0.8735373020172119,-0.22540926933288574
1790334789329406500,14.740406494140625,-0.24495697021484375,0.14844025671482086,-0.05192354694008827
1790334789345847800,14.756847900390625,0.2480112910270691,-0.4245513379573822,0.3243694305419922
1790334789362295300,14.77329541015625,-0.08735372871160507,-0.770301103591919,-0.09896016865968704
1790334789378728200,14.789728271484375,-0.06414084881544113,-0.816726803779602,0.036041051149368286
1790334789395161900,14.806161865234374,0.013439035043120384,0.35063666105270386,0.25473082065582275
1790334789411620000,14.8226201171875,0.15577064454555511,-0.5681046843528748,-0.013439035043120384
1790334789428053500,14.839053466796875,-0.27611109614372253,0.6713408827781677,-0.08857546001672745
1790334789444496400,14.855496337890624,0.32009339332580566,-0.2028072625398636,0.05619960278272629
1790334789460932400,14.871932373046874,-0.12767083942890167,-0.02382374368607998,-0.09162978827953339
1790334789477368000,14.8883681640625,0.04153883829712868,-0.8741481900215149,0.0861319974064827
1790334789493809700,14.9048095703125,-0.2382374405860901,0.018325956538319588,0.22052235901355743
1790334789510240300,14.921240234375,-0.021380282938480377,-0.4697553813457489,-0.17104226350784302
1790334789526693400,14.937693359375,0.06291911751031876,-0.016493361443281174,0.10384709388017654
1790334789543127300,14.954127197265626,0.0757472887635231,-0.0659734457731247,0.025656340643763542
1790334789559562200,14.970562255859376,0.11545353382825851,-0.21441370248794556,0.02687807008624077
1790334789575997200,14.9869970703125,-0.018325956538319588,-0.12278391420841217,-0.0006108652451075613
1790334789592433700,15.00343359375,0.1258382350206375,-0.30054569244384766,0.13255776464939117
1790334789608888600,15.019888671875,0.08124507963657379,-0.31154128909111023,0.04153883829712868
1790334789625322200,15.036322265625,-0.2687807083129883,-0.16982053220272064,-0.05925392732024193
1790334789641757700,15.0527578125,-0.12767083942890167,0.08185594528913498,0.004886921960860491
1790334789658208500,15.06920849609375,0.15515977144241333,-0.6145304441452026,0.2638937830924988
1790334789674643200,15.085643310546875,-0.014049900695681572,-0.9193521738052368,-0.23457226157188416
1790334789691089700,15.102089599609375,-0.18081611394882202,-0.07513642311096191,-0.16859880089759827
1790334789707522000,15.11852197265625,0.04703662544488907,0.17104226350784302,-0.08246681094169617
1790334789723954200,15.1349541015625,-0.16798794269561768,-0.6200281977653503,-0.23090706765651703
1790334789740396300,15.151396240234375,0.10201449692249298,-0.5943718552589417,-0.015271631069481373
1790334789756829000,15.167828857421876,-0.07330382615327835,-1.2516628503799438,-0.2816088795661926
1790334789773282000,15.184281982421876,0.32681289315223694,-0.11484266817569733,0.09896016865968704
1790334789789719300,15.20071923828125,0.012217304669320583,-0.5088507533073425,-0.17104226350784302
1790334789806159400,15.217159423828125,0.4966334402561188,-0.18997909128665924,-0.12217304855585098
1790334789822608100,15.233608154296874,0.23335053026676178,-0.9578366875648499,-0.45142942667007446
1790334789839049500,15.250049560546875,0.2168571650981903,-0.12095131725072861,-0.3604104816913605
1790334789855495400,15.266495361328126,0.43249258399009705,-0.8234463334083557,-0.1514945775270462
1790334789871929600,15.2829296875,0.23396138846874237,-0.423329621553421,-0.1612684279680252
1790334789888362200,15.2993623046875,0.16554448008537292,-1.3048081398010254,-0.28955012559890747
1790334789904748800,15.315748779296875,0.13439035415649414,-0.29077184200286865,0.05742133408784866
1790334789921181200,15.33218115234375,0.3072652220726013,-1.2986994981765747,-0.394618958234787
1790334789937624000,15.3486240234375,0.27061331272125244,0.027488935738801956,-0.2028072625398636
1790334789954056200,15.36505615234375,0.36713001132011414,-0.6743952035903931,-0.3995058834552765
1790334789970431200,15.38143115234375,0.14966198801994324,0.13988813757896423,-0.35735616087913513
1790334789986888200,15.39788818359375,0.35613444447517395,-0.9297369122505188,-0.4660901725292206
1790334790003318000,15.414318115234375,0.2028072625398636,0.0024434609804302454,-0.3335324227809906
1790334790019775000,15.43077490234375,0.39217549562454224,-0.8906415104866028,-0.40133845806121826
1790334790036205600,15.44720556640625,0.17104226350784302,-0.13988813757896423,-0.2785545587539673
1790334790052638500,15.463638427734375,0.5204572081565857,-0.3830125033855438,-0.08796459436416626
1790334790069081600,15.48008154296875,-0.005497787147760391,-0.5375614166259766,-0.14355333149433136
1790334790085583000,15.4965830078125,0.2070833146572113,-0.16065755486488342,0.13744467496871948
1790334790102027300,15.51302734375,-0.02321287989616394,-0.4349360466003418,-0.2370157092809677
1790334790118462000,15.5294619140625,0.31459560990333557,-0.07513642311096191,0.2321287989616394
1790334790134896000,15.545896240234375,0.1563815027475357,-0.5314527750015259,-0.16920967400074005
1790334790151352600,15.5623525390625,0.39156460762023926,-0.059864792972803116,-0.06719517707824707
1790334790167782400,15.578782470703125,0.16920967400074005,0.12034045159816742,-0.1514945775270462
1790334790184228900,15.595228759765625,0.3237585723400116,-0.15393804013729095,-0.1820378452539444
1790334790200660500,15.611660400390624,0.24190263450145721,-0.14355333149433136,-0.12461651116609573
1790334790217090800,15.6280908203125,0.3549126982688904,-0.09896016865968704,-0.18570303916931152
1790334790233532000,15.644531982421874,0.17531833052635193,-0.08307767659425735,-0.2681698501110077
1790334790249962000,15.6609619140625,0.28649580478668213,0.25473082065582275,-0.2431243658065796
1790334790266416400,15.67741650390625,0.024434609338641167,0.00733038317412138,-0.3885102868080139
1790334790282846700,15.6938466796875,0.192422553896904,0.04581489413976669,-0.22846360504627228
1790334790299277800,15.71027783203125,0.06291911751031876,-0.5125159621238708,-0.1569923609495163
1790334790315716000,15.726716064453125,0.11728613078594208,-0.3084869384765625,-0.09040805697441101
1790334790332151600,15.743151611328125,0.06169738993048668,-0.2687807083129883,-0.04948008432984352
1790334790348588000,15.759588134765625,0.04214970022439957,0.016493361443281174,-0.2938261926174164
1790334790365019100,15.77601904296875,-0.09285151958465576,-0.01038470957428217,-0.16065755486488342
1790334790381451800,15.79245166015625,-0.02871066704392433,0.38240164518356323,0.05375614017248154
1790334790397907700,15.80890771484375,-0.07819075137376785,-0.5381723046302795,-0.07452555745840073
1790334790414342100,15.825342041015626,0.031154127791523933,-0.021991148591041565,0.027488935738801956
1790334790430829300,15.841829345703125,-0.06536258012056351,0.10018189996480942,0.056810468435287476
1790334790447258600,15.858258544921876,0.036651913076639175,0.5699372887611389,0.1362229436635971
1790334790463689000,15.87468896484375,-0.07513642311096191,-0.27122417092323303,0.013439035043120384
1790334790480125700,15.891125732421875,0.04581489413976669,0.10445795953273773,-0.1661553531885147
1790334790496557000,15.90755712890625,-0.18997909128665924,0.2119702398777008,-0.007941247895359993
1790334790513014000,15.924013916015625,-0.03237585723400116,0.5534439086914062,-0.0024434609804302454
1790334790529444400,15.9404443359375,0.13255776464939117,-0.23273965716362,-0.0006108652451075613
1790334790545875200,15.956875244140624,-0.14416420459747314,0.484416127204895,-0.07819075137376785
1790334790562318000,15.973318115234376,-0.059864792972803116,-0.2968805134296417,0.11728613078594208
1790334790578754300,15.98975439453125,-0.13011430203914642,0.4031710624694824,-0.04886921867728233
1790334790595190300,16.006190185546874,-0.045204028487205505,0.11301007121801376,0.06963863968849182
1790334790611621600,16.02262158203125,0.003054326167330146,0.45875978469848633,0.13561208546161652
1790334790628053800,16.0390537109375,0.015271631069481373,-0.05803219974040985,0.02626720629632473
1790334790644509000,16.055509033203126,-0.05619960278272629,0.06841690838336945,0.03237585723400116
1790334790660942600,16.071942626953124,-0.12034045159816742,0.3903428912162781,0.21930062770843506
1790334790677374700,16.088374755859373,0.03481931984424591,0.2938261926174164,0.19486601650714874
1790334790693809000,16.104808837890626,0.009162978269159794,-0.013439035043120384,0.06230825558304787
1790334790710244600,16.12124462890625,0.02626720629632473,0.06841690838336945,0.004886921960860491
1790334790726698500,16.137698486328127,-0.05497787147760391,0.607810914516449,-0.033597588539123535
1790334790743129300,16.15412939453125,0.12889257073402405,0.23457226157188416,0.08246681094169617
1790334790759577900,16.170577880859376,-0.13561208546161652,0.1319468915462494,-0.02015855349600315
1790334790776009200,16.18700927734375,0.2736676335334778,-0.018936822190880775,0.27611109614372253
1790334790792441600,16.203441650390626,-0.22052235901355743,0.2938261926174164,0.06108652427792549
1790334790808876000,16.2198759765625,0.005497787147760391,-0.44287729263305664,-0.06414084881544113
1790334790825319400,16.2363193359375,-0.06291911751031876,0.3488040566444397,0.03420845419168472
1790334790841757000,16.2527568359375,-0.13988813757896423,-0.5754350423812866,-0.19303341209888458
1790334790858192600,16.269192626953124,-0.16371189057826996,0.3139847218990326,0.06536258012056351
1790334790874629600,16.285629638671875,-0.04337143152952194,-0.5210680365562439,-0.03726277872920036
1790334790891076400,16.302076416015623,0.039706241339445114,0.014049900695681572,0.14782938361167908
1790334790907509500,16.318509521484376,-0.13316862285137177,-0.4544837474822998,-0.16310101747512817
1790334790923945500,16.334945556640626,-0.05253441259264946,0.0012217304902151227,0.00427605677396059
1790334790940397800,16.351397705078124,-0.13316862285137177,-0.10445795953273773,0.02871066704392433
1790334790956869000,16.367869140625,-0.00855211354792118,-0.1918116807937622,-0.01771509274840355
1790334790973329400,16.384329345703126,-0.16920967400074005,-0.4153883755207062,-0.04092797264456749
1790334790989763300,16.400763427734375,-0.07452555745840073,-0.33292156457901,-0.1319468915462494
1790334791006215700,16.417215576171873,-0.027488935738801956,-0.18448130786418915,0.07941248267889023
1790334791022648300,16.4336484375,-0.08918632566928864,0.07635815441608429,-0.11484266817569733
1790334791039083800,16.450083740234376,0.05375614017248154,-0.3194825351238251,0.08552113175392151
1790334791055522000,16.46652197265625,-0.029932396486401558,-0.5296201705932617,0.01466076634824276
1790334791071947000,16.482947021484375,-0.04337143152952194,0.1014036312699318,0.2028072625398636
1790334791088393700,16.499393798828127,0.03726277872920036,-0.012217304669320583,-0.06902777403593063
1790334791104848000,16.515847900390625,0.005497787147760391,0.20463985204696655,-0.027488935738801956
1790334791121282600,16.532282470703127,0.11850785464048386,-0.5381723046302795,-0.024434609338641167
1790334791137782500,16.548782470703124,0.01710422709584236,0.294437050819397,0.13072516024112701
1790334791154230300,16.565230224609376,0.11545353382825851,-0.3585779070854187,-0.14233160018920898
1790334791169696300,16.5806962890625,-0.012828170321881771,0.5357288122177124,-0.04459316283464432
1790334791186129000,16.59712890625,-0.01771509274840355,-0.626747727394104,-0.23335053026676178
1790334791202563000,16.61356298828125,-0.025656340643763542,0.09773843735456467,0.08735372871160507
1790334791218995200,16.6299951171875,-0.0006108652451075613,-0.6860016584396362,-0.23029619455337524
1790334791235430000,16.646429931640625,-0.0012217304902151227,0.2125810980796814,0.1514945775270462
1790334791251870500,16.662870361328125,-0.09712757170200348,-0.7189884185791016,-0.22052235901355743
1790334791268306400,16.679306396484375,0.11178833991289139,0.1472185254096985,0.15821409225463867
1790334791284743000,16.695742919921877,-0.06780604273080826,0.01160643994808197,-0.04337143152952194
1790334791301203200,16.712203125,0,0.08491026610136032,-0.06963863968849182
1790334791317644300,16.728644287109375,0.18631389737129211,-0.6224716901779175,0.0403171069920063
1790334791334080300,16.745080322265625,-0.10323622822761536,-0.16249015927314758,-0.01771509274840355
1790334791350517000,16.76151708984375,-0.048258353024721146,0.2119702398777008,0.0403171069920063
1790334791366953700,16.77795361328125,-0.051312681287527084,-0.006719517521560192,-0.051312681287527084
1790334791383411700,16.79441162109375,-0.013439035043120384,-0.0006108652451075613,0.021380282938480377
1790334791399862500,16.810862548828126,0.12828169763088226,-0.8478809595108032,-0.02626720629632473
1790334791416295200,16.827295166015624,-0.022602014243602753,0.4398229718208313,0.07513642311096191
1790334791432730600,16.843730712890626,0.23396138846874237,-0.1111774742603302,-0.14294247329235077
1790334791449207000,16.86020703125,-0.054367005825042725,0.4740314185619354,-0.012828170321881771
1790334791465653000,16.876653076171873,0.012217304669320583,-0.8973610401153564,-0.2816088795661926
1790334791482087000,16.8930869140625,-0.007941247895359993,0.29993483424186707,0.06536258012056351
1790334791498541000,16.909541015625,-0.22846360504627228,-0.38606682419776917,-0.2987131178379059
1790334791514975200,16.925975341796875,-0.021991148591041565,0.1814269721508026,0.025045474991202354
1790334791531409000,16.942408935546876,0.20097467303276062,-0.0757472887635231,0.0910189226269722
1790334791547848000,16.958847900390627,0.014049900695681572,-0.1368338167667389,-0.009773843921720982
1790334791564291300,16.975291259765626,0.015271631069481373,-0.04398229718208313,-0.07941248267889023
1790334791580777700,16.99177783203125,0.17287486791610718,0.003054326167330146,-0.028099801391363144
1790334791597217300,17.00821728515625,-0.048258353024721146,-0.20952677726745605,-0.06352998316287994
1790334791613654000,17.024654052734373,0.1514945775270462,0.05619960278272629,0.19058994948863983
1790334791630109400,17.041109375,0.08491026610136032,-0.05803219974040985,-0.07330382615327835
1790334791646544600,17.057544677734374,0.10934487730264664,-0.29565876722335815,-0.1264491081237793
1790334791662991600,17.07399169921875,0.0659734457731247,0.3078760802745819,-0.005497787147760391
1790334791679425000,17.090425048828124,0.12339477986097336,-0.3292563557624817,-0.1264491081237793
1790334791695904800,17.10690478515625,-0.030543262138962746,0.44226643443107605,0.00733038317412138
1790334791712351200,17.123351318359376,0.08552113175392151,-0.5064072608947754,-0.23457226157188416
1790334791728785400,17.139785400390625,0.1111774742603302,-0.23579397797584534,-0.13988813757896423
1790334791745243600,17.15624365234375,-0.11850785464048386,-0.05742133408784866,-0.2070833146572113
1790334791761680000,17.172679931640626,0.08002334833145142,0.1869247704744339,0.04886921867728233
1790334791778114000,17.189114013671876,-0.04581489413976669,-0.5687155723571777,-0.06658431142568588
1790334791794548700,17.205548828125,0.006108652334660292,-0.20525072515010834,-0.09529497474431992
1790334791810991600,17.22199169921875,0.09346238523721695,0.2565633952617645,0.11850785464048386
1790334791827429000,17.23842919921875,0.14294247329235077,-0.14294247329235077,-0.07696902006864548
1790334791843867100,17.2548671875,0.027488935738801956,0.05803219974040985,0.012217304669320583
1790334791860307500,17.271307373046874,0.10873401165008545,-0.4453207552433014,-0.08124507963657379
1790334791876769000,17.28776904296875,-0.08979719132184982,0.4960225820541382,0.018325956538319588
1790334791893205000,17.304205078125,0.23518311977386475,-0.2767219543457031,-0.06963863968849182
1790334791909644300,17.320644287109374,-0.01038470957428217,0.43615779280662537,0.08307767659425735
1790334791926077200,17.3370771484375,-0.04398229718208313,0.054367005825042725,-0.08429940044879913
1790334791942451200,17.353451171875,0.05314527451992035,0.21807889640331268,-0.025045474991202354
1790334791958900000,17.36989990234375,-0.012217304669320583,-0.4495968222618103,-0.17043140530586243
1790334791975331600,17.38633154296875,0.08124507963657379,-0.11911872029304504,-0.10445795953273773
1790334791991780600,17.402780517578126,-0.09834930300712585,0.08674286305904388,-0.04581489413976669
1790334792008210400,17.41921044921875,0.1014036312699318,0.15943582355976105,0.06291911751031876
1790334792024643000,17.43564306640625,-0.009773843921720982,-0.6261368989944458,-0.005497787147760391
1790334792041086700,17.452086669921876,0.012217304669320583,-0.18570303916931152,-0.07757988572120667
1790334792057528000,17.468528076171875,-0.02015855349600315,0.35185837745666504,0.06841690838336945
1790334792074004700,17.485004638671874,0.06719517707824707,-0.11484266817569733,-0.033597588539123535
1790334792090438000,17.50143798828125,0.10323622822761536,0.006719517521560192,-0.03726277872920036
1790334792106871300,17.517871337890625,0.059864792972803116,-0.13744467496871948,0.028099801391363144
1790334792123323100,17.5343232421875,-0.16493362188339233,0.5155702829360962,0.08857546001672745
1790334792139759400,17.55075927734375,0.06963863968849182,-0.294437050819397,-0.06414084881544113
1790334792156247600,17.56724755859375,-0.03237585723400116,0.413555771112442,0.07757988572120667
1790334792172683800,17.583683837890625,0.010995574295520782,-0.4092797040939331,-0.09529497474431992
1790334792189121000,17.60012109375,0.06352998316287994,0.08307767659425735,-0.07757988572120667
1790334792205563100,17.616563232421875,-0.05009094998240471,-0.14844025671482086,-0.07513642311096191
1790334792221998800,17.632998779296877,-0.029932396486401558,-0.2028072625398636,-0.09162978827953339
1790334792238460000,17.6494599609375,-0.02015855349600315,0.060475658625364304,0.11423180252313614
1790334792254894800,17.665894775390626,0.0354301854968071,-0.31031954288482666,-0.039706241339445114
1790334792271332400,17.682332275390625,-0.039095375686883926,0.04153883829712868,0.06841690838336945
1790334792287791400,17.698791259765624,-0.01771509274840355,-0.21807889640331268,-0.07696902006864548
1790334792304233700,17.715233642578124,-0.10323622822761536,0.26633724570274353,-0.01038470957428217
1790334792320672500,17.731672607421874,0.3995058834552765,-0.2474004179239273,0.21319197118282318
1790334792337111300,17.748111328125,-0.00733038317412138,0.21624629199504852,0.12034045159816742
1790334792353551000,17.764551025390624,-0.05619960278272629,-0.24923302233219147,-0.14416420459747314
1790334792369995500,17.78099560546875,-0.018325956538319588,0.6438519954681396,0.030543262138962746
1790334792386434000,17.79743408203125,-0.1160643994808197,-0.455705463886261,-0.22663100063800812
1790334792402870300,17.813870361328124,0.01466076634824276,0.17348572611808777,0.009773843921720982
1790334792419308000,17.83030810546875,-0.07880161702632904,-0.6139195561408997,-0.04581489413976669
1790334792435743500,17.846743408203125,0.0757472887635231,0.4709770977497101,0.08491026610136032
1790334792452177200,17.86317724609375,0.1160643994808197,0.007941247895359993,-0.18936823308467865
1790334792468611000,17.879611083984376,0.23640485107898712,-0.26572638750076294,-0.012217304669320583
1790334792485058800,17.896058837890624,-0.07819075137376785,0.3597996234893799,-0.030543262138962746
1790334792501494300,17.912494384765626,0.11239920556545258,-0.7342600226402283,-0.19853121042251587
1790334792517929000,17.928928955078124,-0.0708603709936142,0.3286454975605011,0.039706241339445114
1790334792534362400,17.9453623046875,-0.14233160018920898,-0.35674530267715454,-0.22479841113090515
1790334792550803000,17.961802978515625,0.16065755486488342,0.0507018156349659,0.09957103431224823
1790334792567239700,17.97823974609375,-0.07757988572120667,-0.6737843751907349,-0.14355333149433136
1790334792583677000,17.994677001953125,0.05619960278272629,0.3176499307155609,0.15393804013729095
1790334792600113200,18.011113037109375,0.02687807008624077,0.1111774742603302,-0.15882496535778046
1790334792616556800,18.027556884765627,0.4178318381309509,0.02382374368607998,0.10201449692249298
1790334792632993000,18.043992919921877,-0.0910189226269722,0.11789698898792267,-0.07513642311096191
1790334792649427700,18.060427734375,-0.13377949595451355,-0.4642575979232788,-0.24862214922904968
1790334792665863200,18.07686328125,-0.05314527451992035,0.40133845806121826,0.08796459436416626
1790334792682301000,18.093301025390623,-0.11911872029304504,-0.39645153284072876,-0.16554448008537292
1790334792698739000,18.109739013671874,0.1264491081237793,0.5589417219161987,0.015271631069481373
1790334792715176200,18.12617626953125,-0.08735372871160507,-0.06414084881544113,-0.10690141469240189
1790334792731623000,18.142622802734376,0.34025195240974426,-0.19975294172763824,0.18631389737129211
1790334792748063000,18.15906298828125,-0.0507018156349659,0.31581732630729675,-0.15515977144241333
1790334792764501800,18.175501708984374,0.0757472887635231,-0.1472185254096985,-0.045204028487205505
1790334792780939800,18.191939697265624,-0.07452555745840073,0.3280346393585205,0.012217304669320583
1790334792797383400,18.208383544921876,-0.15271630883216858,-0.5009095072746277,-0.18875735998153687
1790334792813823200,18.2248232421875,-0.028099801391363144,0.5375614166259766,0.1062905490398407
1790334792830262500,18.241262451171874,-0.04948008432984352,-0.3787364661693573,-0.0659734457731247
1790334792846700000,18.257699951171876,0.2431243658065796,0.00855211354792118,0.14294247329235077
1790334792863143000,18.274142822265624,-0.26572638750076294,0.40256020426750183,-0.1514945775270462
1790334792879579000,18.290578857421874,0.01710422709584236,-0.15271630883216858,0.09285151958465576
1790334792896019500,18.30701953125,0.2168571650981903,0.303600013256073,0.17592918872833252
1790334792912459300,18.323459228515624,-0.10384709388017654,-0.11301007121801376,-0.09529497474431992
1790334792928900900,18.33990087890625,0.1417207419872284,0.616973876953125,-0.005497787147760391
1790334792945341000,18.3563408203125,-0.05742133408784866,-0.2968805134296417,-0.1973094791173935
1790334792961780000,18.372780029296877,0.2687807083129883,0.03787364438176155,0.17592918872833252
1790334792978244000,18.389244140625,-0.20036379992961884,-0.09407325088977814,-0.060475658625364304
1790334792994731800,18.405731689453123,0.26145032048225403,-0.0910189226269722,0.1918116807937622
1790334793011169800,18.422169677734374,-0.04459316283464432,-0.04642575979232788,0.014049900695681572
1790334793027626500,18.43862646484375,-0.19547687470912933,-0.19120082259178162,-0.06108652427792549
1790334793044065000,18.45506494140625,0.09896016865968704,0.5015203952789307,0.17287486791610718
1790334793060500500,18.47150048828125,-0.10323622822761536,-0.1667662113904953,-0.18387043476104736
1790334793076938800,18.487938720703124,0.1368338167667389,0.036651913076639175,0.025045474991202354
1790334793093339400,18.50433935546875,-0.03848451003432274,-0.1270599663257599,-0.1618792861700058
1790334793109800200,18.52080029296875,0.06475171446800232,-0.47769662737846375,0.05803219974040985
1790334793126236400,18.537236328125,-0.14905111491680145,0.33047810196876526,0.08857546001672745
1790334793142678000,18.553677978515626,-0.1667662113904953,-0.27550023794174194,-0.3433062732219696
1790334793159116300,18.5701162109375,0.07269296050071716,0.2528982162475586,-0.05619960278272629
1790334793175556600,18.586556640625,0.09162978827953339,-0.36713001132011414,-0.10201449692249298
1790334793192009200,18.60300927734375,0.21563543379306793,-0.08857546001672745,0.11789698898792267
1790334793208422000,18.619421875,-0.16432274878025055,0.12889257073402405,-0.0507018156349659
1790334793224810200,18.635810302734374,0.1514945775270462,-0.5106833577156067,0.06414084881544113
1790334793241247700,18.652247802734376,-0.2382374405860901,0.3182607889175415,-0.1062905490398407
1790334793257684200,18.668684326171874,0.06230825558304787,0.251676470041275,0.0403171069920063
1790334793274128600,18.685128662109374,0.23151792585849762,-0.22846360504627228,-0.11423180252313614
1790334793290571500,18.701571533203126,0.024434609338641167,-0.059864792972803116,-0.07513642311096191
1790334793307067000,18.71806689453125,0.17104226350784302,-0.32498031854629517,-0.09896016865968704
1790334793323507700,18.7345078125,-0.1160643994808197,0.3494149148464203,-0.09468411654233932
1790334793339946200,18.7509462890625,0.19364428520202637,-0.24556782841682434,-0.03237585723400116
1790334793356400400,18.767400390625,-0.2125810980796814,-0.051312681287527084,-0.1667662113904953
1790334793372838000,18.783837890625,0.16249015927314758,0.10995574295520782,0.24190263450145721
1790334793389285400,18.800285400390624,0.10323622822761536,-0.39645153284072876,-0.3494149148464203
1790334793405727000,18.81672705078125,-0.10812314599752426,0.20830504596233368,-0.012217304669320583
1790334793422167600,18.83316748046875,0.26450464129447937,0.07452555745840073,0.11789698898792267
1790334793438611000,18.84961083984375,-0.11728613078594208,0.03726277872920036,-0.19853121042251587
1790334793455048200,18.866048095703125,0.36163222789764404,0.028099801391363144,0.20830504596233368
1790334793471506700,18.882506591796876,0.09529497474431992,0.23884831368923187,-0.018936822190880775
1790334793487946200,18.8989462890625,-0.3029891550540924,0.07513642311096191,-0.2974913716316223
1790334793504386600,18.915386474609374,0.01160643994808197,0.20586158335208893,-0.0354301854968071
1790334793520829200,18.9318291015625,0.28955012559890747,-0.05253441259264946,0.16310101747512817
1790334793537272000,18.94827197265625,0.11728613078594208,-0.24190263450145721,-0.07635815441608429
1790334793553717500,18.964717529296873,-0.1618792861700058,0.7312057018280029,-0.14844025671482086
1790334793570158600,18.98115869140625,0.1508837193250656,-0.09407325088977814,-0.08307767659425735
1790334793586598400,18.997598388671875,0.12950342893600464,0.10445795953273773,0.003054326167330146
1790334793603056000,19.01405615234375,-0.31154128909111023,0.08185594528913498,-0.1569923609495163
1790334793619495200,19.0304951171875,0.031154127791523933,-0.01710422709584236,0.09773843735456467
1790334793635938300,19.046938232421876,0.2125810980796814,-0.06475171446800232,0.13439035415649414
1790334793652376000,19.0633759765625,0.01160643994808197,-0.3274237811565399,-0.17470745742321014
1790334793668818200,19.079818115234374,-0.21441370248794556,0.7635815739631653,-0.08857546001672745
1790334793685269200,19.096269287109376,-0.0806342139840126,0.06352998316287994,-0.059864792972803116
1790334793701711600,19.112711669921875,0.12522737681865692,-0.045204028487205505,0.02382374368607998
1790334793718178600,19.129178466796876,-0.26022860407829285,-0.34697145223617554,-0.014049900695681572
1790334793734485800,19.14548583984375,0.21441370248794556,0.3072652220726013,0.2474004179239273
1790334793750882000,19.161882080078126,-0.18081611394882202,0.39706242084503174,-0.29993483424186707
1790334793767336400,19.17833642578125,0.41722095012664795,-0.021380282938480377,0.04886921867728233
1790334793783811300,19.194811279296875,0.03848451003432274,0.21074850857257843,-0.10262536257505417
1790334793800266000,19.211265869140625,-0.21930062770843506,-0.20586158335208893,-0.1014036312699318
1790334793816706600,19.22770654296875,-0.04886921867728233,0.3995058834552765,0.18631389737129211
1790334793833145600,19.2441455078125,-0.1459967941045761,-0.26511552929878235,-0.03298672288656235
1790334793849602300,19.260602294921874,0.18570303916931152,0.08246681094169617,0.24190263450145721
1790334793866039800,19.277039794921876,0.10506882518529892,0.3390302062034607,-0.05009094998240471
1790334793882490400,19.293490478515626,-0.12522737681865692,-0.403781920671463,-0.17592918872833252
1790334793898934500,19.3099345703125,-0.016493361443281174,0.6646214127540588,0.09834930300712585
1790334793915373300,19.326373291015624,-0.25106561183929443,-0.1716531366109848,-0.36102136969566345
1790334793931792000,19.3427919921875,0.20341812074184418,0.1765400618314743,-0.036041051149368286
1790334793948232000,19.35923193359375,-0.09896016865968704,0.21013765037059784,-0.07513642311096191
1790334793964584200,19.375584228515624,0.0708603709936142,-0.5491678714752197,-0.059864792972803116
1790334793980991000,19.391990966796875,-0.2889392673969269,0.15577064454555511,0.1472185254096985
1790334793997431000,19.40843115234375,0.0403171069920063,-0.11667526513338089,0.40256020426750183
1790334794013884200,19.42488427734375,0.054367005825042725,-0.02321287989616394,0.18997909128665924
1790334794030356000,19.44135595703125,-0.23273965716362,0.32070425152778625,-0.09529497474431992
1790334794046808600,19.45780859375,-0.036041051149368286,0.1514945775270462,0.03298672288656235
1790334794063250200,19.474250244140624,-0.01160643994808197,0.1411098688840866,0.031154127791523933
1790334794079690000,19.49068994140625,0.09468411654233932,-0.8552113175392151,0.031154127791523933
1790334794095981000,19.50698095703125,-0.07147123664617538,0.5088507533073425,0.045204028487205505
1790334794112384800,19.523384765625,-0.14416420459747314,-0.0806342139840126,-0.3084869384765625
1790334794128821500,19.539821533203124,0.02321287989616394,0.49357911944389343,-0.22846360504627228
1790334794145259000,19.556259033203126,0.27611109614372253,0.3481931984424591,-0.03237585723400116
1790334794161561000,19.57256103515625,-0.04092797264456749,-0.8338310718536377,-0.1472185254096985
1790334794177995800,19.588995849609375,-0.3732386529445648,0.24678955972194672,0.16249015927314758
1790334794194410200,19.60541015625,-0.005497787147760391,-0.24129177629947662,0.38728857040405273
1790334794210851000,19.62185107421875,-0.09896016865968704,0.2565633952617645,0.01038470957428217
1790334794227286000,19.6382861328125,0.11972958594560623,0.1270599663257599,-0.039095375686883926
1790334794243724000,19.65472412109375,0.3390302062034607,-0.07635815441608429,0.06414084881544113
1790334794260161800,19.671161865234374,-0.27000242471694946,0.3640756905078888,-0.1563815027475357
1790334794276605200,19.687605224609374,0.242513507604599,-0.18936823308467865,0.24984388053417206
1790334794293070300,19.7040703125,-0.031154127791523933,0.03176499158143997,-0.12522737681865692
1790334794309507600,19.720507568359373,-0.13377949595451355,-0.028099801391363144,-0.05253441259264946
1790334794325946000,19.736946044921876,0.05497787147760391,0.3677408695220947,0.18814650177955627
1790334794342396400,19.753396484375,-0.14416420459747314,-0.27488934993743896,-0.06108652427792549
1790334794358835500,19.76983544921875,0.4447098970413208,-0.14844025671482086,0.2669481039047241
1790334794375298300,19.78629833984375,-0.37629300355911255,0.4960225820541382,-0.24129177629947662
1790334794391737000,19.802737060546875,0.08491026610136032,0.14355333149433136,0.2174680233001709
1790334794408175900,19.81917578125,0.033597588539123535,-0.009162978269159794,-0.18020524084568024
1790334794424615000,19.835614990234376,-0.3543018400669098,0.1258382350206375,-0.07513642311096191
1790334794441053000,19.852052978515626,0.039706241339445114,0.08246681094169617,0.13927727937698364
1790334794457524200,19.868524169921876,0.06963863968849182,0.23884831368923187,0.09346238523721695
1790334794473961000,19.8849609375,-0.0024434609804302454,-0.7367035150527954,-0.16737708449363708
1790334794490399700,19.901399658203125,-0.08857546001672745,0.6884451508522034,-0.0012217304902151227
1790334794506838500,19.917838623046876,-0.2791654169559479,-0.3952298164367676,-0.33292156457901
1790334794523284200,19.9342841796875,-0.13988813757896423,0.13805554807186127,-0.0910189226269722
1790334794539747000,19.9507470703125,-0.004886921960860491,0.2168571650981903,0.25595253705978394
1790334794556188000,19.96718798828125,0.2981022298336029,-0.5919284224510193,0.31093040108680725
1790334794572628500,19.98362841796875,-0.2981022298336029,0.2981022298336029,-0.03481931984424591
1790334794589084700,20.000084716796874,0.14966198801994324,0.5296201705932617,0.23090706765651703
1790334794605527300,20.01652734375,0.04398229718208313,0.3084869384765625,-0.192422553896904
1790334794621996300,20.032996337890626,-0.1716531366109848,-0.022602014243602753,-0.2028072625398636
1790334794638438100,20.049438232421874,0.182648703455925,-0.06291911751031876,0.182648703455925
1790334794654878500,20.06587841796875,-0.15943582355976105,-0.05375614017248154,-0.09773843735456467
1790334794671320600,20.082320556640624,0.003054326167330146,-0.578489363193512,0.0708603709936142
1790334794687762000,20.098761962890624,-0.1514945775270462,0.6194173693656921,0.1062905490398407
1790334794704207600,20.11520751953125,-0.2021963894367218,-0.2718350291252136,-0.1973094791173935
1790334794720651000,20.131651123046876,0.05253441259264946,0.17592918872833252,0.021991148591041565
1790334794737093000,20.148093017578127,-0.09651670604944229,-0.18875735998153687,-0.13439035415649414
1790334794753535200,20.16453515625,0.22052235901355743,-0.08429940044879913,0.23335053026676178
1790334794769981200,20.180981201171875,-0.2021963894367218,0.4147774875164032,-0.1007927656173706
1790334794786445000,20.197445068359375,-0.06719517707824707,-0.182648703455925,0.05009094998240471
1790334794802887000,20.213886962890626,0.11239920556545258,0.2223549485206604,0.11362093687057495
