time,seconds_elapsed,z,y,x
1790334774748747300,0.159747314453125,-0.4043927788734436,0.23945917189121246,0.5662720799446106
1790334774765198300,0.1761982421875,-0.4043927788734436,0.23945917189121246,0.5662720799446106
1790334774781623300,0.192623291015625,-0.4043927788734436,0.23945917189121246,0.5662720799446106
1790334774798067000,0.20906689453125,-0.4043927788734436,0.23945917189121246,0.5662720799446106
1790334774814517500,0.225517578125,-0.4043927788734436,0.23945917189121246,0.5662720799446106
1790334774830989000,0.241989013671875,-0.4043927788734436,0.23945917189121246,0.5662720799446106
1790334774847439000,0.258439208984375,0.06780604273080826,-0.04459316283464432,0.6835582256317139
1790334774863929000,0.27492919921875,0.08124507963657379,0.1918116807937622,0.5699372887611389
1790334774880439000,0.29143896484375,0.021380282938480377,0.33719760179519653,0.4709770977497101
1790334774896875000,0.307875,-0.09346238523721695,0.3640756905078888,0.33719760179519653
1790334774913344300,0.32434423828125,-0.20830504596233368,0.31459560990333557,0.0659734457731247
1790334774929796600,0.340796630859375,-0.2919935882091522,0.3017674386501312,-0.3017674386501312
1790334774946289200,0.3572890625,-0.2376265823841095,0.18509216606616974,-0.6579018831253052
1790334774962769000,0.373768798828125,-0.11728613078594208,0.23151792585849762,-0.8045095205307007
1790334774979225300,0.390225341796875,0.05803219974040985,0.24007004499435425,-1.084285855293274
1790334774995710000,0.4067099609375,0.03787364438176155,0.02687807008624077,-1.5369369983673096
1790334775012159500,0.423159423828125,-0.10567969083786011,-0.036651913076639175,-1.8991800546646118
1790334775028626200,0.439626220703125,-0.10323622822761536,-0.08246681094169617,-1.7690657377243042
1790334775045152500,0.456152587890625,0.027488935738801956,0.018936822190880775,-1.4282029867172241
1790334775061600500,0.4726005859375,0.18936823308467865,0.375071257352829,-0.9877691268920898
1790334775078110000,0.48910986328125,0.22052235901355743,0.6957755088806152,-0.684779942035675
1790334775094561000,0.50556103515625,0.16310101747512817,0.627358615398407,-0.3854559659957886
1790334775111048200,0.522048095703125,-0.11239920556545258,0.37140607833862305,-0.23884831368923187
1790334775127560200,0.538560302734375,-0.3701843321323395,0.23579397797584534,-0.2779437005519867
1790334775144017200,0.55501708984375,-0.8417723178863525,0.01771509274840355,-0.4893030524253845
1790334775160510700,0.5715107421875,-1.23394775390625,-0.08918632566928864,-0.7250970602035522
1790334775176961000,0.5879609375,-1.2944234609603882,-0.323147714138031,-0.7195992469787598
1790334775193450000,0.604449951171875,-0.930347740650177,-0.5009095072746277,-0.4612032473087311
1790334775209957600,0.62095751953125,-0.7330383062362671,-0.39645153284072876,-0.31031954288482666
1790334775226415400,0.637415283203125,-0.6682865619659424,-0.17470745742321014,-0.23151792585849762
1790334775242899500,0.6538994140625,-0.6927211880683899,-0.03848451003432274,-0.28099802136421204
1790334775259356400,0.6703564453125,-0.7440338730812073,0.10018189996480942,-0.40744712948799133
1790334775275832600,0.68683251953125,-0.6798930168151855,0.24373523890972137,-0.5174028873443604
1790334775292335400,0.70333544921875,-0.5180137157440186,0.3640756905078888,-0.5424483418464661
1790334775308799700,0.7197998046875,-0.2938261926174164,0.38117989897727966,-0.46364670991897583
1790334775325288400,0.736288330078125,-0.21502456068992615,0.35124751925468445,-0.31581732630729675
1790334775341742800,0.752742919921875,-0.18387043476104736,0.3084869384765625,-0.18570303916931152
1790334775358216700,0.769216796875,-0.09285151958465576,0.06291911751031876,-0.0659734457731247
1790334775374712000,0.785712158203125,-0.09896016865968704,-0.10812314599752426,0.02871066704392433
1790334775391159300,0.8021591796875,-0.10262536257505417,-0.27977627515792847,0.06414084881544113
1790334775407610400,0.8186103515625,-0.08246681094169617,-0.3188716471195221,0.06658431142568588
1790334775424060700,0.835060791015625,-0.08491026610136032,-0.1612684279680252,0.342695415019989
1790334775440526000,0.851526123046875,-0.33536502718925476,-0.21441370248794556,0.484416127204895
1790334775456990700,0.86799072265625,-0.485027015209198,-0.27061331272125244,0.5229006409645081
1790334775473435600,0.884435546875,-0.6579018831253052,-0.1716531366109848,0.5082398653030396
1790334775489929000,0.900928955078125,-0.7776314616203308,-0.06414084881544113,0.36713001132011414
1790334775506380500,0.917380615234375,-0.6988298296928406,0.22052235901355743,0.04337143152952194
1790334775522825000,0.933824951171875,-0.24495697021484375,0.10995574295520782,0.20402899384498596
1790334775539327200,0.9503271484375,0.018936822190880775,0.08246681094169617,0.4453207552433014
1790334775555773400,0.9667734375,0.29016098380088806,0.17898350954055786,0.5943718552589417
1790334775572265000,0.983264892578125,0.13316862285137177,0.02626720629632473,0.42577308416366577
1790334775588715300,0.99971533203125,-0.22602014243602753,-0.036041051149368286,0.14233160018920898
1790334775605181200,1.01618115234375,-0.40072759985923767,-0.19120082259178162,-0.19792033731937408
1790334775621691600,1.032691650390625,-0.36590829491615295,-0.16737708449363708,-0.3579670190811157
1790334775638150000,1.04914990234375,-0.28527405858039856,-0.14416420459747314,-0.5870414972305298
1790334775654642400,1.065642333984375,-0.16859880089759827,-0.21441370248794556,-0.7141014933586121
1790334775671090400,1.08209033203125,-0.10690141469240189,-0.30115658044815063,-0.8124507665634155
1790334775687577300,1.098577392578125,-0.08185594528913498,-0.37140607833862305,-0.7617489695549011
1790334775704056300,1.115056396484375,-0.12950342893600464,-0.3396410644054413,-0.5876523852348328
1790334775720515800,1.131515869140625,-0.2278527319431305,-0.3927863538265228,-0.3579670190811157
1790334775736981500,1.1479814453125,-0.29993483424186707,-0.646295428276062,-0.21563543379306793
1790334775753428500,1.164428466796875,-0.29016098380088806,-1.027475357055664,-0.1313360333442688
1790334775769899000,1.18089892578125,-0.3787364661693573,-0.9004153609275818,-0.03787364438176155
1790334775786385700,1.1973857421875,-0.4538728892803192,-1.024420976638794,0.009162978269159794
1790334775802858800,1.213858642578125,-0.5338962078094482,-0.9749409556388855,0.18936823308467865
1790334775819366000,1.230365966796875,-0.5943718552589417,-0.8686503767967224,0.4789183437824249
1790334775835816700,1.246816650390625,-0.7941248416900635,-1.263269305229187,0.8619308471679688
1790334775852306200,1.26330615234375,-0.6701191663742065,-1.472796082496643,1.264491081237793
1790334775868818200,1.279818115234375,-0.33597588539123535,-1.6322319507598877,0.9963212013244629
1790334775885267500,1.296267333984375,-0.19608774781227112,-1.6597208976745605,0.20036379992961884
1790334775901757700,1.3127578125,-0.2883284091949463,-1.6022995710372925,-0.4605923891067505
1790334775918187000,1.32918701171875,-0.4386012554168701,-0.9957103729248047,-1.0348057746887207
1790334775934659800,1.345659912109375,-0.5027421116828918,-0.6627888083457947,-1.6145168542861938
1790334775951169500,1.36216943359375,-0.35735616087913513,-0.7709119319915771,-1.940108060836792
1790334775967629000,1.378629150390625,-0.08918632566928864,-1.1740829944610596,-2.211332082748413
1790334775984143400,1.395143310546875,0.06108652427792549,-1.4880677461624146,-2.1759018898010254
1790334776000602400,1.411602294921875,0.21135938167572021,-1.0684033632278442,-2.032959461212158
1790334776017072400,1.428072265625,0.3378084897994995,-0.3139847218990326,-2.0867156982421875
1790334776033591000,1.444591064453125,0.4331034719944,-0.07819075137376785,-2.135584831237793
1790334776050046500,1.46104638671875,0.5418374538421631,-0.33658674359321594,-2.1930062770843506
1790334776066532600,1.47753271484375,0.8845328688621521,-0.4386012554168701,-2.146580457687378
1790334776082990000,1.493989990234375,1.3683381080627441,-0.5296201705932617,-1.9394971132278442
1790334776099464200,1.510464111328125,2.1783454418182373,-0.6914994716644287,-1.6890424489974976
1790334776116006100,1.527006103515625,2.780658483505249,-0.636521577835083,-1.50211763381958
1790334776132459500,1.54345947265625,3.3786957263946533,-0.5412266254425049,-0.9975429177284241
1790334776148930000,1.559929931640625,3.28828763961792,-0.07330382615327835,-0.11911872029304504
1790334776165385200,1.57638525390625,3.037221908569336,1.1575896739959717,0.9535606503486633
1790334776181857300,1.592857177734375,2.989574432373047,2.6645941734313965,2.2064452171325684
1790334776198343200,1.60934326171875,3.1441233158111572,3.0353894233703613,2.6865854263305664
1790334776214794000,1.6257939453125,3.338378667831421,3.1978795528411865,3.258355140686035
1790334776231289900,1.642289794921875,3.297450542449951,2.970637798309326,3.9205331802368164
1790334776247745000,1.6587451171875,2.509434461593628,0.9706648588180542,4.5906524658203125
1790334776264196900,1.67519677734375,0.054367005825042725,-1.5711454153060913,3.233309745788574
1790334776280713500,1.69171337890625,-1.1753047704696655,-2.700024366378784,1.5729780197143555
1790334776297160700,1.70816064453125,-1.786780834197998,-2.83380389213562,0.3591887652873993
1790334776313655600,1.724655517578125,-1.3946053981781006,-1.7623462677001953,0.2919935882091522
1790334776330108000,1.74110791015625,-0.9230173826217651,-0.5473352670669556,0.5754350423812866
1790334776346553600,1.7575537109375,-0.26083946228027344,0.7953465580940247,0.7580837607383728
1790334776363101700,1.774101806640625,0.23396138846874237,1.2571606636047363,0.6352998614311218
1790334776379553000,1.790552978515625,0.7073819637298584,0.9847147464752197,-0.05864306539297104
1790334776396027400,1.80702734375,0.7293730974197388,0.1160643994808197,-1.189354658126831
1790334776412483600,1.823483642578125,0.6334672570228577,0.6291912198066711,-1.6633861064910889
1790334776428974300,1.839974365234375,0.3445279896259308,1.3371840715408325,-1.804495930671692
1790334776445458200,1.856458251953125,0.030543262138962746,1.1099421977996826,-1.89979088306427
1790334776461914400,1.872914306640625,-0.35246923565864563,0.8112290501594543,-1.670716404914856
1790334776478401300,1.8894013671875,-0.47342056035995483,0.8429940342903137,-1.1728612184524536
1790334776494848500,1.9058486328125,-0.4196644127368927,0.8155050873756409,-0.9541715383529663
1790334776511316700,1.922316650390625,-0.3793473243713379,0.694553792476654,-1.0690141916275024
1790334776527811000,1.93881103515625,-0.39584067463874817,0.8106181621551514,-1.0690141916275024
1790334776544264000,1.955263916015625,-0.45142942667007446,0.9010262489318848,-1.0183123350143433
1790334776560754000,1.97175390625,-0.4306600093841553,0.7654141783714294,-0.941343367099762
1790334776577204000,1.988203857421875,-0.394618958234787,0.484416127204895,-0.8020660877227783
1790334776593668900,2.0046689453125,-0.5381723046302795,0.021991148591041565,-0.5143485069274902
1790334776610179000,2.021178955078125,-0.6450737118721008,-0.18570303916931152,-0.38728857040405273
1790334776626636300,2.03763623046875,-0.7043276429176331,-0.3597996234893799,-0.34636059403419495
1790334776643095600,2.054095458984375,-0.6548475623130798,-0.44715335965156555,-0.3738495409488678
1790334776659543800,2.070543701171875,-0.5577199459075928,-0.4202753007411957,-0.4129449129104614
1790334776676029400,2.087029541015625,-0.5064072608947754,-0.304210901260376,-0.5754350423812866
1790334776692501800,2.103501708984375,-0.5100724697113037,-0.21868975460529327,-0.7367035150527954
1790334776708973600,2.1199736328125,-0.5839871764183044,-0.10201449692249298,-0.9376781582832336
1790334776725454600,2.13645458984375,-0.7202101349830627,0.036041051149368286,-1.0983357429504395
1790334776741901000,2.152901123046875,-0.8411614298820496,0.10506882518529892,-1.179580807685852
1790334776758368800,2.16936865234375,-0.8155050873756409,0.11301007121801376,-1.246165156364441
1790334776774893000,2.18589306640625,-0.7464773058891296,0.07513642311096191,-1.3176363706588745
1790334776791380700,2.202380615234375,-0.6322455406188965,-0.039706241339445114,-1.4422528743743896
1790334776807865900,2.218865966796875,-0.598647952079773,-0.3023782968521118,-1.5558737516403198
1790334776824320300,2.2353203125,-0.675616979598999,-0.4544837474822998,-1.4715744256973267
1790334776840790000,2.2517900390625,-0.6939429044723511,-0.5485569834709167,-1.2791517972946167
1790334776857326300,2.268326416015625,-0.6798930168151855,-0.6841690540313721,-1.2498302459716797
1790334776873779000,2.284779052734375,-0.6548475623130798,-0.8558222055435181,-1.4257594347000122
1790334776890243800,2.301243896484375,-0.5338962078094482,-1.0109820365905762,-1.737911581993103
1790334776906691300,2.31769140625,-0.3341432809829712,-0.9969320893287659,-1.8686367273330688
1790334776923156500,2.334156494140625,-0.303600013256073,-1.0604621171951294,-1.6664403676986694
1790334776939651800,2.35065185546875,-0.3597996234893799,-1.009149432182312,-1.3274102210998535
1790334776956098800,2.367098876953125,-0.37568211555480957,-0.7299839854240417,-1.026253581047058
1790334776972585200,2.383585205078125,-0.31093040108680725,-0.3701843321323395,-1.0885618925094604
1790334776989036800,2.400036865234375,-0.2883284091949463,0.13988813757896423,-1.1612548828125
1790334777005484300,2.416484375,-0.5644394755363464,0.21624629199504852,-1.1484266519546509
1790334777021955600,2.43295556640625,-0.8026769161224365,0.4105014503002167,-0.9199630618095398
1790334777038400500,2.449400390625,-0.9480628371238708,0.6359107494354248,-0.5180137157440186
1790334777054870800,2.465870849609375,-0.8228355050086975,0.5418374538421631,-0.09834930300712585
1790334777071309800,2.482309814453125,-0.6395758986473083,0.1973094791173935,0.11423180252313614
1790334777087777300,2.49877734375,-0.4392121136188507,-0.20830504596233368,0.18020524084568024
1790334777104283100,2.515283203125,-0.40256020426750183,-0.6139195561408997,0.0757472887635231
1790334777120701400,2.531701416015625,-0.494189977645874,-0.9431759119033813,-0.06780604273080826
1790334777137536800,2.548536865234375,-0.5766568183898926,-0.8729264140129089,-0.05192354694008827
1790334777153488000,2.56448779296875,-0.4862487316131592,0.3634648323059082,-0.036651913076639175
1790334777169837300,2.58083740234375,-0.5534439086914062,0.10934487730264664,0.06780604273080826
1790334777186332200,2.597332275390625,-0.7049384713172913,-0.01771509274840355,0.13072516024112701
1790334777202816800,2.613816650390625,-0.5522221922874451,0.007941247895359993,0.001832595793530345
1790334777219298000,2.630298095703125,-0.46547931432724,-0.04948008432984352,-0.20341812074184418
1790334777235750100,2.646750244140625,-0.6194173693656921,-0.1765400618314743,-0.26633724570274353
1790334777252226800,2.663226806640625,-0.9480628371238708,-0.36651915311813354,0.06536258012056351
1790334777268696800,2.67969677734375,-1.073290228843689,-0.5265658497810364,0.3323107063770294
1790334777285191000,2.69619091796875,-1.094059705734253,-0.4960225820541382,0.6047565937042236
1790334777301682000,2.712681884765625,-0.7660250067710876,0.17898350954055786,0.37568211555480957
1790334777318145500,2.7291455078125,-0.49235737323760986,0.4996877610683441,0.13316862285137177
1790334777334616600,2.745616455078125,-0.33292156457901,0.8765916228294373,-0.11789698898792267
1790334777351093000,2.762093017578125,-0.2217440903186798,0.9181304574012756,-0.16920967400074005
1790334777367550500,2.778550537109375,-0.1765400618314743,0.8124507665634155,-0.19364428520202637
1790334777384001000,2.7950009765625,-0.23396138846874237,0.6145304441452026,-0.17959438264369965
1790334777400456700,2.811456787109375,-0.29504790902137756,0.21074850857257843,-0.10323622822761536
1790334777416937200,2.827937255859375,-0.2681698501110077,-0.25045475363731384,0.1411098688840866
1790334777433415200,2.844415283203125,-0.13011430203914642,-0.4086688458919525,0.3084869384765625
1790334777449866000,2.860865966796875,0.019547687843441963,-0.5002986192703247,0.4306600093841553
1790334777466308900,2.877308837890625,0.0024434609804302454,-0.3445279896259308,0.45326200127601624
1790334777482751500,2.89375146484375,-0.08674286305904388,-0.0708603709936142,0.3897320330142975
1790334777499223300,2.910223388671875,-0.048258353024721146,0.19853121042251587,0.24678955972194672
1790334777515677700,2.926677734375,0.027488935738801956,0.3176499307155609,0.11545353382825851
1790334777532133000,2.943133056640625,0.13805554807186127,0.4355469346046448,-0.012828170321881771
1790334777548597200,2.95959716796875,0.19547687470912933,0.4612032473087311,0.04092797264456749
1790334777565052700,2.976052734375,0.23029619455337524,0.46853363513946533,0.26083946228027344
1790334777581525500,2.992525390625,0.17898350954055786,0.38117989897727966,0.46670106053352356
1790334777597997300,3.008997314453125,0.13316862285137177,0.2791654169559479,0.4996877610683441
1790334777614446800,3.02544677734375,0.1313360333442688,0.1514945775270462,0.47708576917648315
1790334777630906600,3.04190673828125,0.13744467496871948,0.051312681287527084,0.4715879559516907
1790334777647350000,3.05835009765625,0.15454891324043274,-0.009773843921720982,0.5448917746543884
1790334777663832000,3.07483203125,0.007941247895359993,-0.07941248267889023,0.6725626587867737
1790334777680304600,3.0913046875,0.02687807008624077,-0.23273965716362,0.7250970602035522
1790334777696779000,3.107779052734375,0.0910189226269722,-0.15393804013729095,0.6249151229858398
1790334777713253600,3.124253662109375,0.08735372871160507,-0.14782938361167908,0.44104471802711487
1790334777729698800,3.14069873046875,0.13500121235847473,-0.19853121042251587,0.304210901260376
1790334777746170400,3.15717041015625,0.2168571650981903,-0.38179078698158264,0.13500121235847473
1790334777762669000,3.1736689453125,0.19608774781227112,-0.5760459303855896,0.0708603709936142
1790334777779157500,3.190157470703125,0.15882496535778046,-0.9230173826217651,0.06108652427792549
1790334777795686100,3.20668603515625,0.13744467496871948,-1.2870930433273315,0.06963863968849182
1790334777812167700,3.223167724609375,0.08735372871160507,-1.4190399646759033,0.054367005825042725
1790334777828623000,3.239623046875,-0.04886921867728233,-1.1557570695877075,0.07880161702632904
1790334777845069800,3.25606982421875,-0.13255776464939117,-0.8961393237113953,0.09529497474431992
1790334777861546500,3.27254638671875,-0.2028072625398636,-0.3793473243713379,0.1062905490398407
1790334777878005200,3.289005126953125,-0.14294247329235077,0.11178833991289139,0.12034045159816742
1790334777894446800,3.30544677734375,-0.07757988572120667,0.5326744914054871,0.0806342139840126
1790334777910902500,3.321902587890625,-0.1160643994808197,0.646295428276062,0.07635815441608429
1790334777927359200,3.338359130859375,-0.18448130786418915,0.4001167416572571,0.10445795953273773
1790334777943833900,3.354833740234375,-0.21563543379306793,0.44593164324760437,0.25045475363731384
1790334777960305000,3.371304931640625,-0.1472185254096985,0.44715335965156555,0.38179078698158264
1790334777976751000,3.387751220703125,-0.09468411654233932,0.32559117674827576,0.43249258399009705
1790334777993201400,3.404201416015625,-0.07819075137376785,0.2791654169559479,0.33292156457901
1790334778009649400,3.4206494140625,-0.08796459436416626,0.2791654169559479,0.2321287989616394
1790334778026128400,3.43712841796875,-0.10751228034496307,0.26572638750076294,0.08674286305904388
1790334778042836700,3.453836669921875,-0.1313360333442688,0.22540926933288574,-0.02076941914856434
1790334778058882800,3.4698828125,-0.16798794269561768,0.15577064454555511,-0.07941248267889023
1790334778075348700,3.4863486328125,-0.21991148591041565,0.14233160018920898,-0.04214970022439957
1790334778091815700,3.502815673828125,-0.2223549485206604,0.11728613078594208,-0.00733038317412138
1790334778108286000,3.519285888671875,-0.20402899384498596,0.11362093687057495,-0.015271631069481373
1790334778124763100,3.53576318359375,-0.13072516024112701,-0.05497787147760391,-0.1417207419872284
1790334778141207300,3.552207275390625,-0.06841690838336945,-0.32131510972976685,-0.3390302062034607
1790334778157672200,3.568672119140625,-0.059864792972803116,-0.3536909818649292,-0.4911356568336487
1790334778174148400,3.5851484375,-0.04214970022439957,-0.22540926933288574,-0.5845980644226074
1790334778190627300,3.60162744140625,-0.14233160018920898,0.23090706765651703,-0.7373143434524536
1790334778207080000,3.618079833984375,-0.18509216606616974,0.44593164324760437,-0.8344419002532959
1790334778223526400,3.6345263671875,-0.16249015927314758,0.7971791625022888,-0.8515461683273315
1790334778239993900,3.650993896484375,-0.37201693654060364,1.4483615159988403,-1.0891727209091187
1790334778256451300,3.667451416015625,-0.5247332453727722,1.6108516454696655,-1.2418889999389648
1790334778272905500,3.683905517578125,-0.6194173693656921,1.4086552858352661,-1.3622294664382935
1790334778289396200,3.700396240234375,-0.5253441333770752,1.2235630750656128,-1.431868076324463
1790334778305847800,3.716847900390625,-0.39156460762023926,1.4483615159988403,-1.4471397399902344
1790334778322318300,3.733318359375,-0.2840523421764374,1.4385876655578613,-1.3439035415649414
1790334778338818300,3.749818359375,-0.27550023794174194,1.338405728340149,-1.1643091440200806
1790334778355268600,3.7662685546875,-0.40683624148368835,1.0115928649902344,-0.8460483551025391
1790334778371710700,3.782710693359375,-0.5827654600143433,0.6340781450271606,-0.5803219676017761
1790334778388154400,3.799154296875,-0.627358615398407,0.44226643443107605,-0.4196644127368927
1790334778404641800,3.815641845703125,-0.5583308339118958,0.5283984541893005,-0.1563815027475357
1790334778421117200,3.8321171875,-0.4440990388393402,0.5809328556060791,-0.03176499158143997
1790334778437566500,3.84856640625,-0.3182607889175415,0.5540547966957092,0.004886921960860491
1790334778454011400,3.865011474609375,-0.3634648323059082,0.49846604466438293,-0.06230825558304787
1790334778470452000,3.881451904296875,-0.504574716091156,0.7605272531509399,-0.07147123664617538
1790334778486923800,3.897923828125,-0.5180137157440186,1.301142930984497,0.06902777403593063
1790334778503387600,3.9143876953125,-0.5290092825889587,1.4899003505706787,0.13011430203914642
1790334778519861000,3.930861083984375,-0.6450737118721008,1.4966198205947876,0.11972958594560623
1790334778536347100,3.94734716796875,-0.808174729347229,1.2370021343231201,0.1160643994808197
1790334778552803600,3.963803466796875,-0.9737191796302795,0.7202101349830627,0.21380282938480377
1790334778569279500,3.980279541015625,-1.1191051006317139,0.15821409225463867,0.3793473243713379
1790334778585756200,3.996756103515625,-1.1746938228607178,-0.0861319974064827,0.4080579876899719
1790334778602231600,4.0132314453125,-1.1954632997512817,-0.13072516024112701,0.3280346393585205
1790334778618700500,4.029700439453125,-1.2034045457839966,-0.08124507963657379,0.13072516024112701
1790334778635145500,4.0461455078125,-1.2412781715393066,0.016493361443281174,-0.1007927656173706
1790334778651602700,4.062602783203125,-1.2113457918167114,0.2076941877603531,-0.1820378452539444
1790334778668063000,4.07906298828125,-1.0855075120925903,0.17409659922122955,-0.11728613078594208
1790334778684539400,4.095539306640625,-0.921184778213501,1.7049249410629272,-1.158811330795288
1790334778701009000,4.1120087890625,-0.8210029006004333,1.6285667419433594,-2.0421226024627686
1790334778717452300,4.128452392578125,-0.9749409556388855,2.22477126121521,-2.3964242935180664
1790334778733899000,4.14489892578125,-0.5088507533073425,1.3903292417526245,-0.9260717034339905
1790334778750366200,4.1613662109375,0.13561208546161652,1.6517796516418457,-0.07513642311096191
1790334778766742800,4.17774267578125,1.3994922637939453,0.5094616413116455,0.7507534027099609
1790334778783186200,4.194186279296875,0.7440338730812073,-1.6010777950286865,1.2760975360870361
1790334778799644200,4.21064404296875,-0.02871066704392433,-2.2540926933288574,1.3445143699645996
1790334778816087800,4.227087890625,0.04398229718208313,-1.3829989433288574,1.3487904071807861
1790334778832535000,4.24353515625,-0.1875356286764145,0.8918632864952087,1.026253581047058
1790334778848977000,4.259976806640625,-0.42760565876960754,0.41722095012664795,0.5381723046302795
1790334778865440300,4.276440185546875,-0.23579397797584534,0.33292156457901,0.4098905920982361
1790334778881882000,4.292882080078125,-0.14966198801994324,0.23640485107898712,0.4807509481906891
1790334778898324500,4.309324462890625,-0.20036379992961884,-0.07513642311096191,0.2590068578720093
1790334778914777000,4.325777099609375,-0.2767219543457031,-0.018936822190880775,0.16554448008537292
1790334778931221800,4.3422216796875,-0.21868975460529327,0.10995574295520782,0.22663100063800812
1790334778947667000,4.3586669921875,-0.152105450630188,-0.18081611394882202,0.33169981837272644
1790334778964114700,4.37511474609375,0.07941248267889023,-0.24923302233219147,0.5937610268592834
1790334778980564200,4.391564208984375,0.3280346393585205,-0.4392121136188507,0.8692612648010254
1790334778997018400,4.408018310546875,0.42577308416366577,-0.33108896017074585,0.9352346658706665
1790334779013484500,4.424484619140625,0.7324274182319641,-0.40683624148368835,1.0250319242477417
1790334779029933600,4.44093359375,0.6774495840072632,-0.4660901725292206,0.9627236127853394
1790334779046390300,4.457390380859375,0.3799581825733185,-0.31154128909111023,0.7116580009460449
1790334779062808000,4.47380810546875,0.27000242471694946,-0.12278391420841217,0.5949827432632446
1790334779079216000,4.490216064453125,0.37079519033432007,-0.08368854224681854,0.5998696684837341
1790334779095660500,4.50666064453125,0.2620611786842346,0.05742133408784866,0.44715335965156555
1790334779112074500,4.523074462890625,0.10567969083786011,0.025045474991202354,0.22296582162380219
1790334779128519000,4.539518798828125,-0.01771509274840355,-0.051312681287527084,-0.19486601650714874
1790334779144961300,4.555961181640625,-0.027488935738801956,0.3023782968521118,-0.5198463201522827
1790334779161413400,4.572413330078125,0.04092797264456749,0.20525072515010834,-0.6676757335662842
1790334779177851400,4.588851318359375,0.0403171069920063,0.21135938167572021,-0.5656611919403076
1790334779194292000,4.6052919921875,0.1459967941045761,0.13439035415649414,-0.48319441080093384
1790334779210732300,4.621732177734375,0.13927727937698364,0.02871066704392433,-0.5400048494338989
1790334779227170600,4.638170654296875,0.012217304669320583,-0.025045474991202354,-0.39217549562454224
1790334779243609900,4.65460986328125,-0.03298672288656235,-0.02382374368607998,-0.4495968222618103
1790334779260066000,4.671066162109375,-0.07208210229873657,-0.03176499158143997,-0.48380526900291443
1790334779276504300,4.68750439453125,-0.17043140530586243,0.5345070958137512,-1.189354658126831
1790334779292955000,4.703954833984375,-0.09468411654233932,1.5155566930770874,-1.8209892511367798
1790334779309396700,4.720396728515625,-0.04153883829712868,1.0879509449005127,-1.8008307218551636
1790334779325836300,4.736836181640625,-0.2076941877603531,0.8032878041267395,-1.197906732559204
1790334779342276400,4.7532763671875,-0.23579397797584534,-0.006108652334660292,-0.6505714654922485
1790334779358751200,4.769751220703125,-0.1618792861700058,-0.24434609711170197,-0.4355469346046448
1790334779375194400,4.7861943359375,-0.11423180252313614,-0.45265114307403564,-0.3744603991508484
1790334779391637500,4.802637451171875,-0.513737678527832,-0.6627888083457947,-0.45142942667007446
1790334779408091400,4.81909130859375,-0.7525860071182251,-0.9205739498138428,-0.5656611919403076
1790334779424532500,4.835532470703125,-0.5100724697113037,-0.3842342495918274,-0.8136724829673767
1790334779440976000,4.851975830078125,0.01771509274840355,0.6420193910598755,-0.8338310718536377
1790334779457420300,4.868420166015625,-0.2730567753314972,0.7843509912490845,-1.0396926403045654
1790334779473862700,4.884862548828125,-0.6939429044723511,1.0867292881011963,-1.1808024644851685
1790334779490303700,4.9013037109375,-0.8582656979560852,1.4789047241210938,-0.9291260242462158
1790334779506757000,4.917757080078125,-0.930347740650177,1.8014415502548218,-0.42760565876960754
1790334779523196200,4.934196044921875,-0.6316346526145935,2.2455406188964844,0.17104226350784302
1790334779539648800,4.950648681640625,-0.042760565876960754,2.2003366947174072,0.5412266254425049
1790334779556089600,4.967089599609375,0.004886921960860491,0.6866125464439392,0.09285151958465576
1790334779572532200,4.9835322265625,0.10567969083786011,-0.04703662544488907,0.0806342139840126
1790334779588974000,4.99997412109375,0.0659734457731247,-1.0073168277740479,0.2871066629886627
1790334779605439700,5.016439697265625,-0.21807889640331268,-2.258979558944702,0.4147774875164032
1790334779621885400,5.032885498046875,0.1368338167667389,-2.258368730545044,-0.15515977144241333
1790334779638330600,5.04933056640625,0.4538728892803192,-1.5173892974853516,0.7318165898323059
1790334779654741200,5.0657412109375,0.7837401032447815,-1.076344609260559,0.96883225440979
1790334779671149300,5.0821494140625,0.778853178024292,-0.34574973583221436,1.1539244651794434
1790334779687556600,5.098556640625,0.7348709106445312,0.25961771607398987,0.4141666293144226
1790334779704000500,5.11500048828125,0.950506329536438,1.214400053024292,0.3078760802745819
1790334779720445200,5.131445068359375,0.4807509481906891,0.08185594528913498,-0.2626720666885376
1790334779736985000,5.147985107421875,-0.22113321721553802,-1.0207557678222656,-0.25106561183929443
1790334779753330200,5.164330078125,-0.8802568316459656,-1.730581283569336,-0.1368338167667389
1790334779769773800,5.18077392578125,-0.6383541822433472,-1.147204875946045,-1.4611896276474
1790334779786217700,5.1972177734375,-0.2926044464111328,-1.188132882118225,-2.2009475231170654
1790334779802664200,5.213664306640625,-0.06658431142568588,-1.7275269031524658,-2.6035077571868896
1790334779819111200,5.230111083984375,0.0403171069920063,-1.816102385520935,-3.059213161468506
1790334779835557000,5.24655712890625,-0.07635815441608429,-1.0042624473571777,-3.8362338542938232
1790334779852020200,5.263020263671875,-0.7531968355178833,-1.0574077367782593,-4.831943988800049
1790334779868474000,5.27947412109375,-1.312138557434082,-0.06108652427792549,-5.382333755493164
1790334779884918000,5.29591796875,-1.7531832456588745,1.5503759384155273,-5.593693256378174
1790334779901379300,5.31237939453125,-3.5546247959136963,6.021298885345459,-3.684739112854004
1790334779917828000,5.328828125,-3.734830141067505,6.034737586975098,-3.112358331680298
1790334779934270500,5.3452705078125,-3.830125093460083,5.4898457527160645,-2.4996604919433594
1790334779950721500,5.361721435546875,-2.492330312728882,5.222898006439209,-3.3298263549804688
1790334779967197000,5.378197021484375,-1.901012659072876,3.7555994987487793,-3.475212335586548
1790334779983636500,5.394636474609375,-1.9737056493759155,4.954728126525879,-1.6701055765151978
1790334780000078300,5.411078369140625,-0.3982841372489929,0.3090978264808655,-0.3530801236629486
1790334780016484000,5.427484130859375,0.02015855349600315,-0.16798794269561768,0.34086281061172485
1790334780032931600,5.443931640625,-0.4801400899887085,0.012828170321881771,-0.49724429845809937
1790334780049377000,5.460376953125,-0.1014036312699318,0.006719517521560192,-0.13500121235847473
1790334780065782800,5.47678271484375,0.2076941877603531,-0.030543262138962746,-0.03237585723400116
1790334780082228000,5.49322802734375,0.182648703455925,-0.013439035043120384,-0.1459967941045761
1790334780098541000,5.509541015625,0.31154128909111023,-0.007941247895359993,-0.11178833991289139
1790334780114985000,5.52598486328125,0.18509216606616974,0.01710422709584236,-0.05314527451992035
1790334780131469300,5.54246923828125,0.02321287989616394,0.03176499158143997,-0.018325956538319588
1790334780147986000,5.55898583984375,0.07819075137376785,0.0024434609804302454,0.013439035043120384
1790334780164435200,5.575435302734375,0.0959058403968811,-0.05864306539297104,-0.006719517521560192
1790334780180845600,5.591845458984375,0.056810468435287476,-0.303600013256073,-0.08674286305904388
1790334780197226000,5.60822607421875,0.30543261766433716,-1.111163854598999,-0.23335053026676178
1790334780213678300,5.62467822265625,0.35063666105270386,-0.6420193910598755,-0.12400564551353455
1790334780230123000,5.641123046875,0.2076941877603531,-0.36224308609962463,-0.09896016865968704
1790334780246565600,5.657565673828125,0.14538592100143433,-0.23090706765651703,-0.048258353024721146
1790334780263007700,5.6740078125,0.036041051149368286,-0.11301007121801376,-0.03848451003432274
1790334780279495000,5.690494873046875,0.01710422709584236,-0.04214970022439957,-0.021991148591041565
1790334780295954000,5.706953857421875,0.04214970022439957,-0.11301007121801376,-0.018325956538319588
1790334780312467700,5.7234677734375,0.012217304669320583,-0.0006108652451075613,-0.001832595793530345
1790334780328938200,5.739938232421875,0.06108652427792549,0.3219259977340698,0.15027284622192383
1790334780345389800,5.756389892578125,-0.10445795953273773,0.7660250067710876,0.5198463201522827
1790334780361849000,5.77284912109375,0.1258382350206375,0.8051204085350037,0.7354817390441895
1790334780378297900,5.7892978515625,-0.2480112910270691,-0.5369505286216736,0.17348572611808777
1790334780394775000,5.805775146484375,-0.5064072608947754,-0.07330382615327835,-0.17104226350784302
1790334780411222300,5.82222216796875,-0.016493361443281174,-0.413555771112442,-0.21930062770843506
1790334780427669200,5.838669189453125,0.1062905490398407,-0.44104471802711487,-0.2272418737411499
1790334780444128300,5.855128173828125,0.3781255781650543,-1.0726794004440308,-0.4715879559516907
1790334780460579600,5.87157958984375,0.7336491346359253,-0.9010262489318848,-0.28588494658470154
1790334780477040400,5.888040283203125,0.6420193910598755,-0.503963828086853,-0.08491026610136032
1790334780493482000,5.90448193359375,0.7489207983016968,-0.028099801391363144,0.20341812074184418
1790334780509926100,5.920926025390625,0.759305477142334,0.7519751191139221,0.6902777552604675
1790334780526399200,5.937399169921875,0.41722095012664795,0.7611380815505981,0.817337691783905
1790334780542842600,5.953842529296875,0.5064072608947754,0.10690141469240189,0.656069278717041
1790334780559299300,5.97029931640625,-0.003054326167330146,-0.5290092825889587,0.17104226350784302
1790334780575744000,5.986743896484375,0.024434609338641167,-0.1264491081237793,-0.08124507963657379
1790334780592192500,6.003192626953125,0.03237585723400116,0.12461651116609573,0.09040805697441101
1790334780608664600,6.01966455078125,0.009162978269159794,-0.060475658625364304,0.016493361443281174
1790334780625104000,6.036103759765625,-0.06475171446800232,-0.26022860407829285,-0.019547687843441963
1790334780641570300,6.0525703125,0.02321287989616394,0.08918632566928864,-0.01160643994808197
1790334780658010400,6.06901025390625,0.5229006409645081,0.7195992469787598,-0.14416420459747314
1790334780674452700,6.08545263671875,0.8301658630371094,1.5528194904327393,-0.02626720629632473
1790334780690897000,6.10189697265625,0.9511171579360962,0.1466076523065567,-1.0482447147369385
1790334780707348000,6.118347900390625,-0.0757472887635231,0.3029891550540924,-0.00855211354792118
1790334780723794200,6.134794189453125,0.01710422709584236,-0.08368854224681854,-0.07941248267889023
1790334780740241000,6.151240966796875,0.07513642311096191,-0.32498031854629517,-0.04948008432984352
1790334780756686600,6.1676865234375,0.028099801391363144,-0.43799036741256714,-0.05864306539297104
1790334780773150700,6.184150634765625,0.039706241339445114,-0.41599923372268677,-0.06902777403593063
1790334780789597700,6.20059765625,0.015882495790719986,-0.18936823308467865,-0.10995574295520782
1790334780806043400,6.21704345703125,0.029932396486401558,-0.16432274878025055,-0.07819075137376785
1790334780822489600,6.233489501953125,0.010995574295520782,-0.07024950534105301,-0.13805554807186127
1790334780838796500,6.249796630859375,0.001832595793530345,-0.09651670604944229,-0.09712757170200348
1790334780855235800,6.26623583984375,-0.003054326167330146,-0.15393804013729095,-0.07024950534105301
1790334780871676700,6.2826767578125,-0.00733038317412138,-0.16493362188339233,-0.05803219974040985
1790334780888126200,6.299126220703125,0.00855211354792118,-0.1514945775270462,0.00366519158706069
1790334780904585000,6.3155849609375,-0.02382374368607998,-0.10384709388017654,-0.009773843921720982
1790334780921029400,6.332029296875,-0.016493361443281174,-0.09651670604944229,-0.01160643994808197
1790334780937479700,6.348479736328125,-0.02626720629632473,-0.08429940044879913,-0.04581489413976669
1790334780953945600,6.364945556640625,-0.02382374368607998,-0.03848451003432274,-0.018936822190880775
1790334780970434000,6.38143408203125,-0.006108652334660292,0.00733038317412138,-0.01771509274840355
1790334780986904300,6.397904296875,0.01160643994808197,-0.02076941914856434,0.0024434609804302454
1790334781003374000,6.4143740234375,0.003054326167330146,-0.021380282938480377,-0.005497787147760391
1790334781019858400,6.4308583984375,0.004886921960860491,0.012217304669320583,-0.0012217304902151227
1790334781036318200,6.447318115234375,0.02015855349600315,-0.01710422709584236,0.042760565876960754
1790334781052842000,6.463842041015625,-0.016493361443281174,0.04153883829712868,0.006108652334660292
1790334781069352000,6.48035205078125,0.03481931984424591,0.010995574295520782,0.048258353024721146
1790334781085818600,6.496818603515625,-0.015271631069481373,0.08246681094169617,0.05009094998240471
1790334781102283000,6.513282958984375,-0.03726277872920036,0.19303341209888458,0.04948008432984352
1790334781118745300,6.529745361328125,0.03481931984424591,-0.003054326167330146,0.03420845419168472
1790334781135268400,6.546268310546875,0.018936822190880775,-0.03237585723400116,0.02382374368607998
1790334781151743000,6.562742919921875,-0.009162978269159794,0.08552113175392151,0.04398229718208313
1790334781168213200,6.579213134765625,-0.0012217304902151227,0.021380282938480377,0.05253441259264946
1790334781184679400,6.595679443359375,0.06841690838336945,-0.00366519158706069,0.07269296050071716
1790334781201133300,6.61213330078125,0.15760323405265808,0.11056660860776901,0.5051855444908142
1790334781217590300,6.62859033203125,0.2767219543457031,0.059864792972803116,0.7660250067710876
1790334781234034700,6.64503466796875,0.3689626157283783,0.09651670604944229,1.166752576828003
1790334781250478600,6.661478515625,0.12522737681865692,0.23273965716362,1.5027284622192383
1790334781266946300,6.6779462890625,-0.2681698501110077,-0.07819075137376785,1.6798794269561768
1790334781283387600,6.6943876953125,-0.5467243790626526,-0.1014036312699318,1.8124371767044067
1790334781299842600,6.710842529296875,-0.504574716091156,-0.2535090744495392,1.9199494123458862
1790334781316286700,6.72728662109375,-0.06780604273080826,-0.16310101747512817,1.8093829154968262
1790334781332729900,6.743729736328125,0.35552358627319336,-1.8448129892349243,-0.8069530129432678
1790334781349186000,6.76018603515625,0.36163222789764404,1.1227703094482422,-0.3390302062034607
1790334781365629000,6.77662890625,0.13072516024112701,0.6927211880683899,-0.618195652961731
1790334781381968000,6.7929677734375,-0.004886921960860491,-0.009773843921720982,-0.6682865619659424
1790334781398411800,6.809411865234375,-0.04948008432984352,0.1563815027475357,-0.2834414839744568
1790334781414855000,6.82585498046875,-0.07819075137376785,-0.028099801391363144,-0.20402899384498596
1790334781431309300,6.842309326171875,-0.04214970022439957,-0.8808676600456238,-1.4135421514511108
1790334781447758600,6.858758544921875,-0.40683624148368835,0.788627028465271,-1.580308437347412
1790334781464213500,6.875213623046875,-0.3341432809829712,-0.24190263450145721,-1.8820757865905762
1790334781480658200,6.891658203125,-0.19303341209888458,-0.06902777403593063,-1.320690631866455
1790334781497099800,6.908099853515625,0.2974913716316223,-1.6041321754455566,-0.48380526900291443
1790334781513562600,6.924562744140625,0.4715879559516907,-0.5668829679489136,-0.36163222789764404
1790334781530008000,6.941008056640625,0.1765400618314743,-0.8100073337554932,-0.47342056035995483
1790334781546466300,6.95746630859375,0.17104226350784302,-0.2223549485206604,-0.22602014243602753
1790334781562914600,6.97391455078125,0.11239920556545258,-0.17531833052635193,-0.2742784917354584
1790334781579360000,6.990360107421875,0.1618792861700058,-0.6261368989944458,-0.4495968222618103
1790334781595820000,7.006820068359375,0.16798794269561768,-0.14477506279945374,-0.14233160018920898
1790334781612268800,7.023268798828125,0.0806342139840126,0.024434609338641167,-0.08735372871160507
1790334781628736800,7.03973681640625,0.05925392732024193,0.08368854224681854,-0.03726277872920036
1790334781645215000,7.056215087890625,0.0708603709936142,0.04337143152952194,0.05375614017248154
1790334781661661700,7.07266162109375,-0.029932396486401558,0.5070181488990784,0.24373523890972137
1790334781678109000,7.08910888671875,-0.20402899384498596,0.31520646810531616,0.3323107063770294
1790334781694557700,7.1055576171875,-0.39645153284072876,-0.13255776464939117,0.43249258399009705
1790334781711004400,7.12200439453125,-0.6004805564880371,-0.5222898125648499,0.6621779203414917
1790334781727450000,7.1384501953125,-0.655458390712738,-0.5613851547241211,0.8118399381637573
1790334781743894000,7.15489404296875,-0.5222898125648499,0.12889257073402405,0.9841039180755615
1790334781760350200,7.17135009765625,-0.5772676467895508,0.8509352803230286,1.3005321025848389
1790334781776792000,7.1877919921875,0.009162978269159794,0.16371189057826996,0.039706241339445114
1790334781793311700,7.204311767578125,0.009773843921720982,-0.03787364438176155,-0.025045474991202354
1790334781809772800,7.220772705078125,-0.0006108652451075613,0.16859880089759827,0.05192354694008827
1790334781826239200,7.2372392578125,0.04886921867728233,0.04581489413976669,0.0403171069920063
1790334781842704600,7.25370458984375,0.021991148591041565,-0.06902777403593063,-0.07513642311096191
1790334781859147000,7.27014697265625,0.013439035043120384,-0.09651670604944229,-0.11667526513338089
1790334781875612200,7.286612060546875,0.06902777403593063,-0.01710422709584236,-0.021380282938480377
1790334781892123000,7.303122802734375,0.0507018156349659,0.02687807008624077,0.01771509274840355
1790334781908568600,7.319568603515625,0.0806342139840126,0.015882495790719986,-0.07024950534105301
1790334781925014300,7.33601416015625,0.1612684279680252,0.03176499158143997,-0.21502456068992615
1790334781941464300,7.35246435546875,0.3701843321323395,0.021380282938480377,-0.5870414972305298
1790334781957908700,7.36890869140625,0.45814892649650574,0.0403171069920063,-0.7935139536857605
1790334781974351000,7.38535107421875,0.37568211555480957,-0.12339477986097336,-0.5821545720100403
1790334781990795500,7.40179541015625,0.2028072625398636,-0.1918116807937622,-0.5797111392021179
1790334782007255800,7.418255859375,0.08735372871160507,-0.11239920556545258,-0.20586158335208893
1790334782023704000,7.4347041015625,0.19120082259178162,-0.15577064454555511,-0.2791654169559479
1790334782040156200,7.45115625,0.20952677726745605,-0.48319441080093384,-0.3628539443016052
1790334782056567800,7.46756787109375,0.12400564551353455,-0.33169981837272644,-0.16065755486488342
1790334782073067500,7.484067626953125,0.01771509274840355,0.1007927656173706,-0.00733038317412138
1790334782089517800,7.500517822265625,0.05925392732024193,0.20830504596233368,0.039706241339445114
1790334782105968000,7.516968017578125,0.12522737681865692,1.2333369255065918,0.2620611786842346
1790334782122430200,7.53343017578125,0.17287486791610718,0.35124751925468445,-0.021380282938480377
1790334782138876700,7.549876708984375,0.23029619455337524,-0.00366519158706069,-0.2828305959701538
1790334782155321600,7.566321533203125,0.0708603709936142,-0.0555887371301651,-0.1820378452539444
1790334782171793000,7.58279296875,0.08368854224681854,0.07147123664617538,0.12950342893600464
1790334782188251600,7.599251708984375,-0.06352998316287994,-0.03176499158143997,0.05864306539297104
1790334782204748000,7.615748046875,-0.021380282938480377,0.028099801391363144,-0.03848451003432274
1790334782221215500,7.632215576171875,-0.042760565876960754,-0.00427605677396059,-0.14233160018920898
1790334782237668000,7.648668212890625,0.05253441259264946,0.04153883829712868,-0.12095131725072861
1790334782254134500,7.665134521484375,0.10323622822761536,0.1569923609495163,0.04153883829712868
1790334782270581500,7.68158154296875,0.07635815441608429,0.13011430203914642,-0.06475171446800232
1790334782287076000,7.698076171875,-0.001832595793530345,-0.0012217304902151227,-0.08185594528913498
1790334782303557600,7.7145576171875,0.024434609338641167,0.007941247895359993,-0.02382374368607998
1790334782320036000,7.7310361328125,0.051312681287527084,0.045204028487205505,0.07147123664617538
1790334782336510000,7.747510009765625,-0.028099801391363144,-0.021991148591041565,-0.10384709388017654
1790334782352978000,7.76397802734375,0.006719517521560192,-0.010995574295520782,-0.01038470957428217
1790334782369501000,7.7805009765625,0.012217304669320583,-0.13255776464939117,-0.16371189057826996
1790334782385950000,7.796949951171875,0.006719517521560192,-0.4740314185619354,-0.25961771607398987
1790334782402397200,7.813397216796875,0.021991148591041565,-0.3677408695220947,-0.2272418737411499
1790334782418865000,7.829864990234375,0.06658431142568588,-0.17898350954055786,-0.12950342893600464
1790334782435315200,7.846315185546875,0.1569923609495163,0.1411098688840866,-0.1215621829032898
1790334782451765800,7.862765869140625,0.0354301854968071,0.32070425152778625,0.10873401165008545
1790334782468216600,7.879216552734375,0.02871066704392433,-0.5913175344467163,-0.5174028873443604
1790334782484667000,7.8956669921875,-0.01038470957428217,0.14844025671482086,0.039095375686883926
1790334782501139500,7.912139404296875,0.010995574295520782,0,0.03420845419168472
1790334782517602800,7.928602783203125,-0.012217304669320583,-0.02626720629632473,-0.016493361443281174
1790334782534094800,7.9450947265625,-0.016493361443281174,0.048258353024721146,0.0006108652451075613
1790334782550557400,7.961557373046875,0.04459316283464432,-0.2168571650981903,0.04337143152952194
1790334782567006700,7.9780068359375,-0.08979719132184982,0.251676470041275,-0.02076941914856434
1790334782583495700,7.99449560546875,-0.02626720629632473,0.051312681287527084,0.04581489413976669
1790334782599957800,8.010957763671875,0.04398229718208313,0.12828169763088226,0.02321287989616394
1790334782616412400,8.027412353515626,0.1569923609495163,0.18325957655906677,0.15515977144241333
1790334782632857900,8.04385791015625,0.39156460762023926,0.07147123664617538,0.43615779280662537
1790334782649303800,8.0603037109375,0.53328537940979,-0.09773843735456467,0.2877175211906433
1790334782665749000,8.0767490234375,0.4801400899887085,0.10506882518529892,0.39645153284072876
1790334782682200000,8.093199951171876,0.3017674386501312,-0.03787364438176155,0.22846360504627228
1790334782698644500,8.10964453125,0.010995574295520782,0.18387043476104736,0.14294247329235077
1790334782715091700,8.126091796875,0.03176499158143997,0.2742784917354584,0.14233160018920898
1790334782731541200,8.142541259765625,-0.007941247895359993,0.36713001132011414,0.08857546001672745
1790334782747993300,8.158993408203125,-0.013439035043120384,0.27000242471694946,-0.036651913076639175
1790334782764438000,8.17543798828125,-0.05742133408784866,0.3439171314239502,-0.015882495790719986
1790334782780884200,8.19188427734375,-0.20097467303276062,0.750142514705658,-0.16920967400074005
1790334782797331000,8.2083310546875,0.22540926933288574,1.0213667154312134,0.1258382350206375
1790334782813779200,8.224779296875,0.7330383062362671,1.643227458000183,0.7544185519218445
1790334782830229500,8.2412294921875,1.016479730606079,-0.17104226350784302,0.3897320330142975
1790334782846680000,8.25768017578125,1.3017538785934448,-0.0659734457731247,0.7660250067710876
1790334782863129300,8.27412939453125,1.6212363243103027,1.2021827697753906,0.5968153476715088
1790334782878549200,8.28954931640625,1.7794504165649414,1.5906931161880493,0.2626720666885376
1790334782894998000,8.305998046875,1.660942554473877,1.0305296182632446,0.24984388053417206
1790334782911454700,8.322454833984375,1.0952813625335693,0.16249015927314758,0.7122688889503479
1790334782927910400,8.338910400390626,0.36590829491615295,-0.7452555894851685,-0.5668829679489136
1790334782944362500,8.355362548828126,-0.03787364438176155,-0.4453207552433014,-0.05375614017248154
1790334782960813800,8.371813720703125,0.1814269721508026,1.2229522466659546,-1.1270463466644287
1790334782977263900,8.388263916015624,0.33169981837272644,1.225395679473877,-0.6841690540313721
1790334782993731600,8.404731689453126,0.24617868661880493,-0.6120869517326355,-0.9957103729248047
1790334783010180600,8.4211806640625,0.18020524084568024,0.31642818450927734,-0.18875735998153687
1790334783026630000,8.4376298828125,0.2070833146572113,-0.14294247329235077,0.03237585723400116
1790334783043079200,8.4540791015625,0.24923302233219147,0.02321287989616394,0.3170390725135803
1790334783059528700,8.47052880859375,0.2431243658065796,0.059864792972803116,0.11850785464048386
1790334783076069600,8.487069580078124,0.1820378452539444,-0.34147366881370544,-0.23029619455337524
1790334783092519000,8.503518798828125,0.3078760802745819,0.375071257352829,-0.4050036668777466
1790334783108983000,8.519983154296876,0.2993239760398865,0.24923302233219147,-0.5839871764183044
1790334783125428500,8.536428466796876,0.2871066629886627,0.07208210229873657,-0.5210680365562439
1790334783141884000,8.5528837890625,-0.11789698898792267,-0.07452555745840073,-0.01038470957428217
1790334783158249700,8.569249755859374,-0.06658431142568588,-0.3274237811565399,0.15271630883216858
1790334783174709000,8.585708984375,-0.11667526513338089,-0.1667662113904953,0.13072516024112701
1790334783191149600,8.602149658203125,-0.13500121235847473,-0.3072652220726013,0.15332718193531036
1790334783207593500,8.618593505859375,-0.13988813757896423,-0.014049900695681572,0.1466076523065567
1790334783224038100,8.6350380859375,-0.0910189226269722,0.013439035043120384,0.09285151958465576
1790334783240505600,8.651505615234376,-0.00733038317412138,0.11728613078594208,-0.12400564551353455
1790334783256948200,8.6679482421875,0.16554448008537292,0.23029619455337524,-0.31520646810531616
1790334783273394700,8.684394775390626,0.32620203495025635,0.4544837474822998,-0.7745771408081055
1790334783289839600,8.700839599609376,-0.21319197118282318,1.2626584768295288,-0.6743952035903931
1790334783306282000,8.717281982421875,-0.08918632566928864,1.49906325340271,-0.4398229718208313
1790334783322729200,8.733729248046876,-0.3029891550540924,-0.3194825351238251,-0.1160643994808197
1790334783339172600,8.750172607421876,-0.14966198801994324,-0.036651913076639175,0.15332718193531036
1790334783355621000,8.76662109375,-0.15943582355976105,-0.15943582355976105,0.02015855349600315
1790334783372061700,8.783061767578126,-0.1508837193250656,0.0403171069920063,0.10995574295520782
1790334783388502500,8.79950244140625,-0.08552113175392151,-0.08368854224681854,-0.18509216606616974
1790334783404944000,8.81594384765625,-0.03481931984424591,0.5778785347938538,0.2028072625398636
1790334783421252400,8.83225244140625,-0.05742133408784866,0.16920967400074005,-0.0708603709936142
1790334783437690400,8.8486904296875,-0.13011430203914642,0.00733038317412138,-0.04948008432984352
1790334783454129200,8.865129150390626,-0.3017674386501312,-0.06841690838336945,-0.05314527451992035
1790334783470572300,8.881572265625,-0.42210787534713745,1.4172073602676392,-0.4911356568336487
1790334783487025400,8.898025390625,-0.38240164518356323,2.481334686279297,-0.8222246170043945
1790334783503463700,8.914463623046874,-0.46853363513946533,2.7403414249420166,-0.7648032903671265
1790334783519904000,8.930904052734375,0.00427605677396059,-0.10934487730264664,0.07330382615327835
1790334783536362800,8.94736279296875,0.009773843921720982,-0.014049900695681572,0.009773843921720982
1790334783552831500,8.96383154296875,0.003054326167330146,-0.02626720629632473,0.025045474991202354
1790334783569332500,8.98033251953125,-0.0024434609804302454,-0.022602014243602753,0.006108652334660292
1790334783585770500,8.9967705078125,0.039706241339445114,-0.08246681094169617,0.07208210229873657
1790334783602232800,9.01323291015625,-0.0354301854968071,0.042760565876960754,0.04398229718208313
1790334783618690800,9.02969091796875,-0.02382374368607998,0.007941247895359993,-0.009773843921720982
1790334783635157000,9.046156982421875,-0.001832595793530345,-0.021991148591041565,0.016493361443281174
1790334783651656700,9.06265673828125,-0.03848451003432274,0.031154127791523933,-0.04948008432984352
1790334783668103400,9.079103515625,0.10934487730264664,-0.03481931984424591,0.03298672288656235
1790334783684552000,9.095552001953125,-0.005497787147760391,-0.1411098688840866,0.028099801391363144
1790334783701013500,9.112013427734375,-0.02076941914856434,-0.02626720629632473,0.015882495790719986
1790334783717484800,9.12848486328125,-0.025656340643763542,-0.004886921960860491,0.029932396486401558
1790334783733970400,9.144970458984375,-0.003054326167330146,-0.10445795953273773,0.07880161702632904
1790334783750412000,9.161412109375,0.06902777403593063,0.17898350954055786,0.03787364438176155
1790334783766853000,9.17785302734375,0.048258353024721146,-0.12095131725072861,0.11728613078594208
1790334783783312100,9.19431201171875,-0.0006108652451075613,0.007941247895359993,0.09224065393209457
1790334783799752000,9.210751953125,0.07391469180583954,0.027488935738801956,0.15332718193531036
1790334783816208000,9.227207763671874,-0.03787364438176155,-0.009162978269159794,0.042760565876960754
1790334783832650200,9.243650146484375,-0.06902777403593063,-0.0024434609804302454,-0.012828170321881771
1790334783849201200,9.260201171875,-0.04764748737215996,0.00855211354792118,0.054367005825042725
1790334783865506300,9.27650634765625,-0.04092797264456749,-0.022602014243602753,0.06719517707824707
1790334783881975600,9.2929755859375,-0.0659734457731247,0.03420845419168472,0.01466076634824276
1790334783898444800,9.30944482421875,0.003054326167330146,-0.34697145223617554,0.025045474991202354
1790334783914893800,9.325893798828124,-0.02932153269648552,0.19425514340400696,0.13500121235847473
1790334783931356400,9.3423564453125,-0.012828170321881771,-0.00855211354792118,0.02076941914856434
1790334783947801600,9.358801513671875,-0.015882495790719986,-0.07880161702632904,-0.014049900695681572
1790334783964245500,9.37524560546875,0.019547687843441963,0.13011430203914642,0.05314527451992035
1790334783980695600,9.391695556640625,-0.09773843735456467,0.05009094998240471,0.025656340643763542
1790334783997141000,9.40814111328125,0.01038470957428217,-0.16493362188339233,0.006108652334660292
1790334784013636400,9.42463623046875,-0.033597588539123535,0.09346238523721695,0.06841690838336945
1790334784030079000,9.441078857421875,-0.018936822190880775,0.07696902006864548,0.015882495790719986
1790334784046522400,9.4575224609375,0.04214970022439957,-0.2687807083129883,-0.006719517521560192
1790334784062989600,9.473989501953126,-0.006108652334660292,0.21930062770843506,0.09407325088977814
1790334784079542000,9.4905419921875,0.012828170321881771,0.0012217304902151227,0.01771509274840355
1790334784095944000,9.50694384765625,-0.0006108652451075613,-0.045204028487205505,0.021991148591041565
1790334784112400000,9.52339990234375,-0.009162978269159794,0.1661553531885147,0.0507018156349659
1790334784128702500,9.539702392578125,-0.05192354694008827,-0.1215621829032898,0.009773843921720982
1790334784145219000,9.556218994140625,0.013439035043120384,-0.06475171446800232,-0.004886921960860491
1790334784161666600,9.57266650390625,-0.03237585723400116,0.06230825558304787,0.025045474991202354
1790334784178129000,9.58912890625,-0.007941247895359993,0.04459316283464432,-0.0006108652451075613
1790334784194567400,9.6055673828125,0.03787364438176155,-0.2174680233001709,-0.03176499158143997
1790334784211006000,9.622005859375,-0.019547687843441963,0.10445795953273773,0.048258353024721146
1790334784227486000,9.63848583984375,-0.02382374368607998,0.02382374368607998,0.009162978269159794
1790334784243926500,9.654926513671874,-0.00855211354792118,-0.11423180252313614,-0.01466076634824276
1790334784260416000,9.671416015625,0.00733038317412138,0.14477506279945374,0.029932396486401558
1790334784276856000,9.68785595703125,-0.04764748737215996,-0.028099801391363144,-0.003054326167330146
1790334784293319400,9.7043193359375,0.02932153269648552,-0.08918632566928864,-0.03298672288656235
1790334784309819000,9.72081884765625,-0.0555887371301651,0.0354301854968071,-0.0024434609804302454
1790334784326261500,9.737261474609374,-0.02015855349600315,0.015882495790719986,-0.0006108652451075613
1790334784342719200,9.75371923828125,0.0403171069920063,-0.21991148591041565,-0.02321287989616394
1790334784359178200,9.77017822265625,0.0012217304902151227,0.10934487730264664,0.04581489413976669
1790334784375622700,9.78662255859375,0.01466076634824276,0.11056660860776901,0.0012217304902151227
1790334784392106000,9.80310595703125,0.012828170321881771,0.013439035043120384,0.012828170321881771
1790334784408558000,9.81955810546875,0.01710422709584236,-0.06902777403593063,-0.03726277872920036
1790334784425005000,9.836005126953125,-0.03237585723400116,-0.1319468915462494,-0.01771509274840355
1790334784441447000,9.852447021484375,0.015271631069481373,-0.04459316283464432,-0.04398229718208313
1790334784457915000,9.868914794921874,-0.039095375686883926,0.021380282938480377,0.004886921960860491
1790334784474418200,9.885418212890626,-0.006108652334660292,0.018325956538319588,-0.02871066704392433
1790334784490863400,9.90186328125,0.0507018156349659,-0.1918116807937622,0.01771509274840355
1790334784507329800,9.918329833984375,-0.016493361443281174,0.0507018156349659,0.04581489413976669
1790334784523770000,9.93477001953125,-0.02687807008624077,-0.016493361443281174,0.014049900695681572
1790334784540237300,9.9512373046875,-0.024434609338641167,-0.05253441259264946,0.025045474991202354
1790334784556722700,9.96772265625,-0.01466076634824276,0.17592918872833252,0.04764748737215996
1790334784573164000,9.9841640625,-0.048258353024721146,-0.16920967400074005,0.005497787147760391
1790334784589673700,10.000673828125,0.03787364438176155,-0.08796459436416626,-0.025045474991202354
1790334784606134500,10.017134521484374,-0.04214970022439957,0.03481931984424591,0.022602014243602753
1790334784622601000,10.03360107421875,0.00427605677396059,0.028099801391363144,-0.015882495790719986
1790334784639069700,10.050069580078125,0.06841690838336945,-0.16249015927314758,0.03787364438176155
1790334784655515000,10.066514892578125,-0.06291911751031876,0.036651913076639175,0.06719517707824707
1790334784671978200,10.082978271484375,-0.036651913076639175,-0.042760565876960754,0.012828170321881771
1790334784688436500,10.0994365234375,-0.03481931984424591,0.007941247895359993,-0.004886921960860491
1790334784704875300,10.115875244140625,-0.01160643994808197,0.23396138846874237,-0.025656340643763542
1790334784721319700,10.132319580078125,-0.025045474991202354,-0.23518311977386475,0.006719517521560192
1790334784737758700,10.1487587890625,0.004886921960860491,-0.2125810980796814,0.021380282938480377
1790334784754248000,10.165248046875,-0.0507018156349659,-0.13744467496871948,-0.022602014243602753
1790334784770689800,10.181689697265625,0.009773843921720982,0.1368338167667389,-0.01771509274840355
1790334784787153200,10.198153076171875,0.04398229718208313,-0.02687807008624077,-0.036651913076639175
1790334784803620000,10.2146201171875,-0.03481931984424591,0.08307767659425735,0.07269296050071716
1790334784820065300,10.231065185546875,-0.016493361443281174,-0.08429940044879913,0.039706241339445114
1790334784836531000,10.247531005859376,-0.031154127791523933,0.0555887371301651,0.04642575979232788
1790334784852989700,10.26398974609375,-0.012828170321881771,0.29077184200286865,0.025656340643763542
1790334784869429500,10.280429443359376,0.01160643994808197,-0.18997909128665924,-0.06291911751031876
1790334784885892000,10.29689208984375,0.05803219974040985,-0.152105450630188,-0.015882495790719986
1790334784902390000,10.31339013671875,-0.04948008432984352,-0.06475171446800232,-0.02382374368607998
1790334784918900500,10.329900390625,0.006719517521560192,0.048258353024721146,-0.04398229718208313
1790334784935344600,10.3463447265625,0.051312681287527084,-0.01160643994808197,-0.03420845419168472
1790334784951815400,10.3628154296875,0.02321287989616394,0.0757472887635231,0.01466076634824276
1790334784968316200,10.379316162109374,-0.001832595793530345,-0.012828170321881771,0.013439035043120384
1790334784984763400,10.395763427734375,-0.01038470957428217,0.0403171069920063,0.02382374368607998
1790334785001257500,10.412257568359376,0.007941247895359993,0.2064724564552307,-0.013439035043120384
1790334785017717500,10.428717529296875,-0.01160643994808197,-0.10384709388017654,-0.00855211354792118
1790334785034162200,10.445162109375,0.0403171069920063,-0.15760323405265808,-0.039706241339445114
1790334785050647300,10.461647216796875,-0.04153883829712868,0.00733038317412138,-0.01038470957428217
1790334785067073800,10.47807373046875,0.00855211354792118,0.05619960278272629,-0.07269296050071716
1790334785083542000,10.4945419921875,0.05253441259264946,-0.028099801391363144,-0.012217304669320583
1790334785099862500,10.510862548828126,0.04703662544488907,0.0959058403968811,0.039095375686883926
1790334785116330200,10.527330322265625,0.05803219974040985,0.028099801391363144,0.01710422709584236
1790334785132837400,10.54383740234375,-0.0024434609804302454,0.04214970022439957,0.01160643994808197
1790334785149288400,10.560288330078125,0.036041051149368286,0.23518311977386475,0.025045474991202354
1790334785165757400,10.57675732421875,-0.014049900695681572,0.001832595793530345,0.006108652334660292
1790334785182217200,10.59321728515625,-0.03726277872920036,-0.09224065393209457,-0.029932396486401558
1790334785198683100,10.60968310546875,-0.02321287989616394,0,-0.025656340643763542
1790334785215168800,10.626168701171874,0.001832595793530345,0.11850785464048386,-0.060475658625364304
1790334785231609600,10.642609619140625,0.030543262138962746,-0.21930062770843506,-0.05925392732024193
1790334785248099000,10.65909912109375,0.0507018156349659,-0.14966198801994324,0.010995574295520782
1790334785264540000,10.675539794921875,-0.039095375686883926,0.06108652427792549,0.02321287989616394
1790334785281005600,10.692005615234375,-0.036041051149368286,0.03726277872920036,-0.05314527451992035
1790334785297494000,10.708493896484375,0.07330382615327835,0.06291911751031876,0
1790334785313941000,10.72494091796875,0.027488935738801956,-0.04398229718208313,0.02321287989616394
1790334785330400300,10.741400146484375,-0.030543262138962746,0.12889257073402405,0.07635815441608429
1790334785346844200,10.75784423828125,-0.06108652427792549,0.09285151958465576,0.028099801391363144
1790334785363316200,10.774316162109375,0.054367005825042725,0.08368854224681854,0.006108652334660292
1790334785379823900,10.790823974609374,-0.006719517521560192,-0.08491026610136032,-0.006108652334660292
1790334785396282000,10.8072822265625,0.006719517521560192,-0.0757472887635231,0.03726277872920036
1790334785412798700,10.823798828125,-0.01710422709584236,-0.02321287989616394,0.05009094998240471
1790334785429263000,10.84026318359375,0.022602014243602753,-0.04153883829712868,0.10384709388017654
1790334785445732600,10.856732666015626,-0.05253441259264946,0.02382374368607998,-0.013439035043120384
1790334785462238700,10.87323876953125,0.001832595793530345,0.031154127791523933,0.031154127791523933
1790334785478692900,10.88969287109375,-0.03176499158143997,-0.04459316283464432,0.04398229718208313
1790334785495190300,10.906190185546874,0.0403171069920063,0.09285151958465576,0.08796459436416626
1790334785511652400,10.92265234375,-0.05619960278272629,0.08918632566928864,0.02382374368607998
1790334785528096500,10.939096435546874,-0.1508837193250656,0.07391469180583954,0.01466076634824276
1790334785544543500,10.95554345703125,-0.00733038317412138,-0.2125810980796814,-0.00366519158706069
1790334785560988000,10.97198779296875,-0.021380282938480377,0.1319468915462494,0.0708603709936142
1790334785577449200,10.98844921875,0.08429940044879913,0.010995574295520782,0.10323622822761536
1790334785593891300,11.004891357421876,-0.19364428520202637,0.1612684279680252,0.04642575979232788
1790334785610334500,11.02133447265625,0.025656340643763542,-0.07269296050071716,0.13561208546161652
1790334785626782200,11.0377822265625,0.02687807008624077,-0.1869247704744339,0.1062905490398407
1790334785643234600,11.054234619140624,-0.12400564551353455,0.10873401165008545,-0.02932153269648552
1790334785659703000,11.070703125,-0.03237585723400116,-0.04948008432984352,0.07330382615327835
1790334785676145400,11.0871455078125,-0.030543262138962746,0.13927727937698364,0.14355333149433136
1790334785692587000,11.1035869140625,0.01160643994808197,-0.03848451003432274,0.12950342893600464
1790334785709038800,11.120038818359374,-0.08307767659425735,0.051312681287527084,0.09529497474431992
1790334785725481200,11.136481201171875,-0.10873401165008545,-0.15882496535778046,-0.06902777403593063
1790334785741926400,11.152926513671876,0.11850785464048386,-0.11056660860776901,0.14355333149433136
1790334785758370000,11.1693701171875,-0.04948008432984352,0.22846360504627228,0.1667662113904953
1790334785774812200,11.185812255859375,-0.18325957655906677,-0.09040805697441101,-0.03420845419168472
1790334785791258000,11.202258056640625,-0.09712757170200348,-0.0910189226269722,0
1790334785807702000,11.218701904296875,0.039706241339445114,-0.08185594528913498,0.09529497474431992
1790334785824148500,11.2351484375,-0.06780604273080826,-0.10873401165008545,0.015882495790719986
1790334785840590000,11.251590087890625,-0.045204028487205505,-0.02871066704392433,-0.09285151958465576
1790334785857030700,11.26803076171875,-0.009773843921720982,0.22052235901355743,0.12400564551353455
1790334785873473800,11.284473876953125,-0.16432274878025055,0.2926044464111328,0.01160643994808197
1790334785889860900,11.30086083984375,0.007941247895359993,-0.3225368559360504,0.0806342139840126
1790334785906373600,11.31737353515625,-0.0910189226269722,-0.26633724570274353,0.15943582355976105
1790334785922813200,11.333813232421875,-0.19364428520202637,-0.16493362188339233,-0.08429940044879913
1790334785939279000,11.350279052734376,-0.006108652334660292,-0.04948008432984352,0.05192354694008827
1790334785955758300,11.36675830078125,-0.10812314599752426,0.23335053026676178,0.17959438264369965
1790334785972198100,11.3831982421875,-0.1313360333442688,0.02626720629632473,0.1160643994808197
1790334785988642000,11.39964208984375,-0.18020524084568024,-0.1319468915462494,0.10690141469240189
1790334786005082600,11.41608251953125,-0.03237585723400116,-0.05192354694008827,0.14844025671482086
1790334786021523200,11.432523193359375,-0.031154127791523933,-0.24068090319633484,-0.06414084881544113
1790334786037974000,11.44897412109375,-0.018325956538319588,0.09224065393209457,-0.07880161702632904
1790334786054417700,11.465417724609376,0.016493361443281174,0.2620611786842346,0.030543262138962746
1790334786070780000,11.48177978515625,-0.11484266817569733,0.26511552929878235,-0.042760565876960754
1790334786087222000,11.498221923828124,0.0354301854968071,-0.1722639948129654,0.06475171446800232
1790334786103522000,11.51452197265625,-0.11850785464048386,-0.3078760802745819,0.06719517707824707
1790334786119973600,11.5309736328125,-0.06352998316287994,0.15271630883216858,0.07819075137376785
1790334786136421400,11.54742138671875,-0.006719517521560192,-0.16859880089759827,-0.1514945775270462
1790334786152874500,11.56387451171875,0.013439035043120384,0.3543018400669098,0.14538592100143433
1790334786169333500,11.58033349609375,-0.10018189996480942,0.00427605677396059,-0.012217304669320583
1790334786185773800,11.59677392578125,-0.2076941877603531,0.12339477986097336,0.03481931984424591
1790334786202230500,11.61323046875,0.07880161702632904,-0.3084869384765625,0.01160643994808197
1790334786218666500,11.62966650390625,-0.018936822190880775,-0.26083946228027344,0.009162978269159794
1790334786235104300,11.646104248046875,-0.13805554807186127,-0.021991148591041565,-0.16310101747512817
1790334786251559200,11.66255908203125,0.16554448008537292,0.1514945775270462,-0.08307767659425735
1790334786267996700,11.67899658203125,-0.0403171069920063,0.29138273000717163,0.02076941914856434
1790334786284439300,11.695439208984375,-0.08735372871160507,-0.0403171069920063,-0.06108652427792549
1790334786300875500,11.71187548828125,-0.18081611394882202,0.051312681287527084,-0.05803219974040985
1790334786317329400,11.728329345703125,0.18387043476104736,0.07330382615327835,0.15454891324043274
1790334786333764600,11.7447646484375,-0.02076941914856434,-0.24617868661880493,-0.09040805697441101
1790334786350199800,11.76119970703125,0.01771509274840355,0.44165557622909546,0.01710422709584236
1790334786366643200,11.777643310546875,0.18387043476104736,0.004886921960860491,-0.04214970022439957
1790334786383090000,11.79408984375,-0.05314527451992035,0.2321287989616394,0.06841690838336945
1790334786399533800,11.810533935546875,-0.07452555745840073,-0.05497787147760391,-0.039095375686883926
1790334786415973000,11.82697314453125,-0.18997909128665924,0.022602014243602753,-0.007941247895359993
1790334786432408000,11.843407958984375,0.09346238523721695,-0.2724458873271942,0.02076941914856434
1790334786448865800,11.85986572265625,-0.03237585723400116,-0.23151792585849762,-0.06536258012056351
1790334786465302800,11.876302734375,0.09285151958465576,0.4502076804637909,0.07941248267889023
1790334786481740500,11.892740478515625,0.18814650177955627,0.09468411654233932,0.04337143152952194
1790334786498196700,11.90919677734375,-0.024434609338641167,0.24495697021484375,0.1111774742603302
1790334786514631700,11.925631591796876,-0.08246681094169617,-0.05497787147760391,0.001832595793530345
1790334786531071700,11.94207177734375,-0.20463985204696655,0.25045475363731384,-0.04764748737215996
1790334786547505000,11.9585048828125,0.19303341209888458,0.06536258012056351,0.17348572611808777
1790334786563956700,11.974956787109376,0.010995574295520782,-0.16554448008537292,-0.16493362188339233
1790334786580390700,11.991390625,0.14844025671482086,0.4337143301963806,0.030543262138962746
1790334786596825300,12.007825439453125,0.26083946228027344,0.2174680233001709,-0.08552113175392151
1790334786613283300,12.024283447265624,0.08918632566928864,0.1966986060142517,0.07513642311096191
1790334786629727200,12.040727294921876,-0.06475171446800232,0.0012217304902151227,-0.012217304669320583
1790334786646176000,12.057176025390625,-0.20891591906547546,0.33536502718925476,-0.05009094998240471
1790334786662611500,12.073611572265625,0.10751228034496307,0.009162978269159794,0.042760565876960754
1790334786679050200,12.09005029296875,-0.003054326167330146,-0.10445795953273773,-0.10873401165008545
1790334786695505200,12.106505126953126,0.004886921960860491,0.3488040566444397,0.08002334833145142
1790334786711942700,12.122942626953124,0.12522737681865692,0.04459316283464432,-0.10506882518529892
1790334786728381000,12.139380859375,0.06902777403593063,0.2632829248905182,0.2076941877603531
1790334786744816400,12.15581640625,-0.06658431142568588,-0.11789698898792267,0.0659734457731247
1790334786761254100,12.172254150390625,-0.22968533635139465,0.5253441333770752,0.009162978269159794
1790334786777692000,12.18869189453125,0.08307767659425735,-0.05375614017248154,0.05009094998240471
1790334786794131200,12.205131103515624,-0.016493361443281174,-0.29626965522766113,-0.05742133408784866
1790334786810585600,12.221585693359375,-0.04092797264456749,0.3830125033855438,0.18570303916931152
1790334786827024400,12.2380244140625,0.04886921867728233,0.08246681094169617,-0.16798794269561768
1790334786843462700,12.254462646484376,0.08979719132184982,0.48747047781944275,0.13439035415649414
1790334786859915000,12.2709150390625,0.08674286305904388,-0.021991148591041565,0.021991148591041565
1790334786876409000,12.2874091796875,-0.17776179313659668,0.323147714138031,-0.0910189226269722
1790334786892745500,12.303745361328126,-0.004886921960860491,0.09040805697441101,-0.08246681094169617
1790334786909184500,12.3201845703125,-0.00855211354792118,0.11789698898792267,-0.13255776464939117
1790334786925624300,12.336624267578125,0.1472185254096985,0.18325957655906677,0.09407325088977814
1790334786942084600,12.353084716796875,-0.006108652334660292,-0.22418753802776337,-0.3182607889175415
1790334786958525700,12.369525634765624,0.05864306539297104,0.3585779070854187,0.013439035043120384
1790334786974971400,12.385971435546875,-0.001832595793530345,-0.1362229436635971,-0.015882495790719986
1790334786991410200,12.40241015625,-0.18509216606616974,0.30482175946235657,0.14966198801994324
1790334787007849700,12.418849609375,-0.10690141469240189,0.0959058403968811,0.21807889640331268
1790334787024295000,12.435294921875,-0.24434609711170197,0.30115658044815063,-0.06169738993048668
1790334787040737000,12.451737060546876,0.10384709388017654,0.22296582162380219,0.2974913716316223
1790334787057243400,12.468243408203126,-0.02015855349600315,-0.05803219974040985,-0.025656340643763542
1790334787073682200,12.48468212890625,-0.00427605677396059,0.36163222789764404,0.1514945775270462
1790334787090064400,12.501064453125,0.07391469180583954,0.2669481039047241,-0.14416420459747314
1790334787106502100,12.517502197265625,0.09285151958465576,0.1667662113904953,0.1411098688840866
1790334787122911000,12.533910888671874,0,0.15760323405265808,0.2785545587539673
1790334787139349200,12.550349365234375,-0.32681289315223694,0.30543261766433716,0.010995574295520782
1790334787155786000,12.566785888671875,-0.1014036312699318,0.4789183437824249,0.3292563557624817
1790334787172221700,12.5832216796875,-0.21135938167572021,-0.1667662113904953,-0.09346238523721695
1790334787188667600,12.599667724609375,-0.07391469180583954,0.3995058834552765,0.21319197118282318
1790334787205107000,12.61610693359375,-0.1062905490398407,-0.01038470957428217,-0.22296582162380219
1790334787221546500,12.63254638671875,-0.10018189996480942,0.4080579876899719,0.04398229718208313
1790334787237983000,12.64898291015625,0.1875356286764145,0.43799036741256714,0.28099802136421204
1790334787254420500,12.66542041015625,-0.03481931984424591,0.07819075137376785,0.17837265133857727
1790334787270859800,12.68185986328125,-0.16065755486488342,0.11484266817569733,0.25595253705978394
1790334787287296300,12.698296142578124,-0.35185837745666504,0.4764748811721802,0.09896016865968704
1790334787303748400,12.714748291015624,-0.031154127791523933,0.16737708449363708,0.4398229718208313
1790334787320184800,12.731184814453124,-0.18387043476104736,-0.24007004499435425,0.03298672288656235
1790334787336620800,12.747620849609374,-0.2877175211906433,0.3274237811565399,0.3897320330142975
1790334787353055200,12.76405517578125,0.05192354694008827,0.5314527750015259,0.34697145223617554
1790334787369495600,12.78049560546875,-0.07024950534105301,0.19608774781227112,0.3029891550540924
1790334787385931800,12.796931884765625,-0.20525072515010834,0.05314527451992035,0.31520646810531616
1790334787402368300,12.8133681640625,-0.24434609711170197,0.7715228199958801,0.27122417092323303
1790334787418801200,12.82980126953125,-0.2871066629886627,0.2474004179239273,0.2125810980796814
1790334787435252500,12.84625244140625,-0.313373863697052,0.413555771112442,0.1722639948129654
1790334787451695400,12.8626953125,-0.07635815441608429,0.4129449129104614,0.4801400899887085
1790334787468129500,12.879129638671875,-0.24373523890972137,0.09162978827953339,0.12461651116609573
1790334787484564000,12.89556396484375,-0.16798794269561768,0.43737950921058655,0.38728857040405273
1790334787500999700,12.911999755859375,0.13500121235847473,0.5619960427284241,0.26633724570274353
1790334787517436200,12.928436279296875,-0.06719517707824707,0.504574716091156,0.09224065393209457
1790334787533875700,12.944875732421876,0.14294247329235077,0.7574729323387146,0.3323107063770294
1790334787550329000,12.9613291015625,0.03481931984424591,0.43249258399009705,0.1264491081237793
1790334787566766300,12.977766357421874,-0.13561208546161652,0.40194934606552124,0.342695415019989
1790334787583204400,12.994204345703125,-0.41599923372268677,0.5583308339118958,0.03848451003432274
1790334787599640800,13.010640869140625,-0.036651913076639175,0.26450464129447937,0.3640756905078888
1790334787616086000,13.0270859375,-0.17531833052635193,0.08429940044879913,-0.07208210229873657
1790334787632528000,13.04352783203125,-0.02687807008624077,0.0959058403968811,0.4196644127368927
1790334787648966700,13.059966552734375,-0.08368854224681854,-0.394008070230484,-0.03176499158143997
1790334787665404400,13.076404296875,-0.1368338167667389,0.47708576917648315,0.2974913716316223
1790334787681857800,13.09285791015625,-0.16371189057826996,-0.20097467303276062,-0.19914206862449646
1790334787698294800,13.109294677734376,-0.05803219974040985,0.3188716471195221,0.15943582355976105
1790334787714732800,13.12573291015625,0.0659734457731247,0.5002986192703247,0.588263213634491
1790334787731170300,13.14217041015625,-0.17287486791610718,0.14049901068210602,-0.08674286305904388
1790334787747607600,13.158607666015625,-0.04092797264456749,0.455705463886261,0.4056145250797272
1790334787764044800,13.175044921875,-0.09896016865968704,0.5387831330299377,-0.07269296050071716
1790334787780482000,13.19148193359375,-0.19914206862449646,0.00855211354792118,0.02015855349600315
1790334787796924400,13.20792431640625,-0.13255776464939117,-0.08124507963657379,-0.11728613078594208
1790334787813359400,13.224359375,0.192422553896904,-0.022602014243602753,0.3640756905078888
1790334787829794800,13.240794921875,-0.1160643994808197,-0.1612684279680252,-0.15515977144241333
1790334787846229500,13.2572294921875,-0.014049900695681572,0.22296582162380219,0.04337143152952194
1790334787862672600,13.273672607421876,0.3488040566444397,0.18448130786418915,0.1722639948129654
1790334787879110700,13.290110595703124,0.19914206862449646,0.4251621961593628,-0.192422553896904
1790334787895545600,13.306545654296874,0.19303341209888458,0.26572638750076294,-0.0006108652451075613
1790334787911982300,13.322982421875,0.05742133408784866,0.21074850857257843,0.09285151958465576
1790334787928427800,13.339427734375,0.00733038317412138,-0.45875978469848633,0.012217304669320583
1790334787944866300,13.3558662109375,-0.2620611786842346,0.35735616087913513,0.019547687843441963
1790334787961303800,13.3723037109375,-0.10201449692249298,0.16982053220272064,0.2718350291252136
1790334787977744100,13.388744140625,-0.36163222789764404,-0.02076941914856434,-0.18814650177955627
1790334787994182700,13.4051826171875,-0.027488935738801956,0.3121521472930908,0.2791654169559479
1790334788010622200,13.421622314453124,-0.17776179313659668,-0.921184778213501,-0.22357667982578278
1790334788027059200,13.43805908203125,0.07024950534105301,-0.04398229718208313,0.27488934993743896
1790334788043509200,13.45450927734375,-0.1661553531885147,-1.0268645286560059,-0.21930062770843506
1790334788059948500,13.470948486328124,-0.2070833146572113,0.48747047781944275,-0.10384709388017654
1790334788076403000,13.48740283203125,0.2076941877603531,0.35246923565864563,0.3500257730484009
1790334788092812300,13.503812255859375,-0.01771509274840355,0.14844025671482086,-0.07269296050071716
1790334788109258200,13.52025830078125,0.05009094998240471,0.11545353382825851,0.2620611786842346
1790334788125734400,13.536734375,-0.0659734457731247,0.4202753007411957,0.1466076523065567
1790334788142171100,13.553171142578124,-0.06902777403593063,0.02687807008624077,-0.03298672288656235
1790334788158605600,13.56960546875,-0.22540926933288574,0.4996877610683441,-0.04398229718208313
1790334788174921500,13.58592138671875,-0.03176499158143997,0.23151792585849762,0.1466076523065567
1790334788191408600,13.60240869140625,-0.2926044464111328,-0.1411098688840866,-0.01771509274840355
1790334788207846100,13.61884619140625,0.05009094998240471,0.3701843321323395,0.2834414839744568
1790334788224280600,13.635280517578124,-0.22052235901355743,-0.5766568183898926,-0.11789698898792267
1790334788240714800,13.65171484375,0.08124507963657379,0.4092797040939331,0.1973094791173935
1790334788257151500,13.6681513671875,0.025656340643763542,-0.033597588539123535,0.12400564551353455
1790334788273585700,13.684585693359375,0.14416420459747314,0.1417207419872284,0.1514945775270462
1790334788290038800,13.701038818359375,-0.18875735998153687,-0.655458390712738,0.021380282938480377
1790334788306478000,13.71747802734375,-0.2926044464111328,0.8478809595108032,0.11911872029304504
1790334788322916400,13.733916259765625,0.21868975460529327,-0.03848451003432274,0.41233405470848083
1790334788339355100,13.750355224609375,-0.10506882518529892,0.5002986192703247,0.029932396486401558
1790334788355800000,13.766800048828125,0.10995574295520782,-0.10384709388017654,0.19853121042251587
1790334788372241000,13.783240966796875,-0.2119702398777008,0.7611380815505981,-0.001832595793530345
1790334788388678000,13.799677978515625,0.21624629199504852,0.4899139404296875,0.19608774781227112
1790334788405113900,13.81611376953125,-0.01160643994808197,0.3225368559360504,0.03298672288656235
1790334788421556500,13.832556396484375,-0.05253441259264946,0.06169738993048668,0.1667662113904953
1790334788437994500,13.848994384765625,-0.2070833146572113,0.5900958180427551,0.09285151958465576
1790334788454433300,13.865433349609376,0.1111774742603302,0.15515977144241333,0.29993483424186707
1790334788470871000,13.88187109375,-0.21868975460529327,0.009773843921720982,-0.04948008432984352
1790334788487308800,13.898308837890625,-0.004886921960860491,0.27611109614372253,0.3683517575263977
1790334788503747000,13.9147470703125,-0.3885102868080139,0.06230825558304787,0.02871066704392433
1790334788520184000,13.93118408203125,-0.18081611394882202,0.24129177629947662,0.3090978264808655
1790334788536634600,13.947634521484375,-0.2272418737411499,-0.3646865487098694,-0.056810468435287476
1790334788553073200,13.9640732421875,0.08552113175392151,0.24068090319633484,0.23335053026676178
1790334788569508900,13.9805087890625,-0.4489859640598297,0.22663100063800812,0.08857546001672745
1790334788585947100,13.996947021484376,-0.07269296050071716,0.30543261766433716,0.17837265133857727
1790334788602386700,14.01338671875,0.04214970022439957,-0.0555887371301651,0.2773328125476837
1790334788618821400,14.0298212890625,-0.06291911751031876,-0.4098905920982361,-0.009162978269159794
1790334788635252700,14.046252685546875,-0.12034045159816742,-0.4001167416572571,0.004886921960860491
1790334788651684000,14.06268408203125,0.08796459436416626,0.4495968222618103,0.2638937830924988
1790334788668125400,14.07912548828125,-0.14538592100143433,-0.485027015209198,-0.07269296050071716
1790334788684560100,14.09556005859375,0.05925392732024193,0.28588494658470154,0.05253441259264946
1790334788701000000,14.112,-0.16493362188339233,-0.6994407176971436,-0.2541199326515198
1790334788717435600,14.128435546875,-0.26450464129447937,0.47342056035995483,-0.11789698898792267
1790334788733869600,14.14486962890625,0.3292563557624817,-0.05253441259264946,0.20891591906547546
1790334788750305500,14.161305419921876,-0.16798794269561768,-0.23335053026676178,-0.19792033731937408
1790334788766739500,14.177739501953125,0.01466076634824276,-0.37690386176109314,0.05192354694008827
1790334788783186200,14.194186279296876,-0.20586158335208893,0.6249151229858398,0.18875735998153687
1790334788799622400,14.210622314453126,0.19853121042251587,-0.41233405470848083,0.08552113175392151
1790334788816056600,14.227056640625,-0.15271630883216858,0.5907067060470581,0.07941248267889023
1790334788832511000,14.243510986328126,0.030543262138962746,-0.0659734457731247,0.01038470957428217
1790334788848950300,14.2599501953125,0.033597588539123535,0.12339477986097336,-0.07513642311096191
1790334788865391900,14.276391845703126,0.21624629199504852,0.08674286305904388,0.08429940044879913
1790334788881823200,14.2928232421875,-0.14233160018920898,-0.05803219974040985,-0.04581489413976669
1790334788898130000,14.3091298828125,-0.028099801391363144,0.24068090319633484,0.13439035415649414
1790334788914447000,14.325447021484376,0.2535090744495392,0.08491026610136032,0.13072516024112701
1790334788930886400,14.341886474609375,0.045204028487205505,-0.36713001132011414,-0.10384709388017654
1790334788947329800,14.358329833984374,-0.26511552929878235,-0.20525072515010834,-0.06108652427792549
1790334788963763500,14.374763427734376,-0.13316862285137177,0.4294382631778717,0.12828169763088226
1790334788980197400,14.391197265625,-0.07452555745840073,-0.5387831330299377,-0.08124507963657379
1790334788996640000,14.407639892578125,0.04092797264456749,-0.006719517521560192,0.16737708449363708
1790334789013075700,14.42407568359375,-0.3323107063770294,-0.8032878041267395,-0.09957103431224823
1790334789029537800,14.440537841796875,0.09896016865968704,0.17409659922122955,0.33536502718925476
1790334789045973200,14.45697314453125,-0.32131510972976685,-0.7922922372817993,-0.19120082259178162
1790334789062409000,14.473408935546875,-0.01771509274840355,-0.08185594528913498,0.15454891324043274
1790334789078905300,14.4899052734375,0.23029619455337524,-0.23396138846874237,0.3378084897994995
1790334789095169000,14.5061689453125,-0.03420845419168472,-0.10873401165008545,0.10445795953273773
1790334789111535400,14.522535400390625,-0.07208210229873657,-0.4398229718208313,0.05864306539297104
1790334789127971600,14.5389716796875,-0.10690141469240189,0.4398229718208313,0.1411098688840866
1790334789144406000,14.555406005859375,-0.07330382615327835,-0.6817256212234497,-0.12461651116609573
1790334789160901400,14.5719013671875,-0.045204028487205505,0.25106561183929443,-0.02871066704392433
1790334789177338600,14.588338623046875,0.4508185386657715,-0.1612684279680252,0.1215621829032898
1790334789193781500,14.604781494140624,-0.03176499158143997,0.342695415019989,-0.07391469180583954
1790334789210216000,14.6212158203125,0.06780604273080826,-0.13744467496871948,0.025045474991202354
1790334789226652400,14.63765234375,-0.17409659922122955,0.08246681094169617,0.04703662544488907
1790334789243094500,14.654094482421876,0.1508837193250656,-0.06902777403593063,0.2474004179239273
1790334789259530500,14.670530517578126,-0.1472185254096985,0.21624629199504852,-0.009162978269159794
1790334789275983600,14.686983642578125,0.22113321721553802,-0.005497787147760391,0.21807889640331268
1790334789292417800,14.703417724609375,-0.031154127791523933,0.16065755486488342,-0.08979719132184982
1790334789308853800,14.719853759765625,0.12828169763088226,0.12522737681865692,0.08368854224681854
1790334789325298400,14.73629833984375,-0.2577851414680481,-0.21991148591041565,-0.1258382350206375
1790334789341739300,14.7527392578125,-0.04703662544488907,-0.1264491081237793,0.1111774742603302
1790334789358187800,14.769187744140625,0.05314527451992035,-0.21013765037059784,0.2791654169559479
1790334789374620400,14.785620361328125,-0.13011430203914642,-0.3744603991508484,0.192422553896904
1790334789391053300,14.80205322265625,-0.04153883829712868,-0.2767219543457031,0.25534167885780334
1790334789407511000,14.818510986328125,0.021380282938480377,-0.11667526513338089,-0.03420845419168472
1790334789423945500,14.834945556640625,-0.30543261766433716,0.005497787147760391,-0.05742133408784866
1790334789440387000,14.851386962890626,-0.06780604273080826,0.21991148591041565,0.018325956538319588
1790334789456823800,14.86782373046875,-0.16798794269561768,-0.4996877610683441,-0.11667526513338089
1790334789473259000,14.884259033203126,0.10934487730264664,-0.4697553813457489,0.2070833146572113
1790334789489702100,14.9007021484375,-0.4440990388393402,-0.7086036801338196,-0.009162978269159794
1790334789506132500,14.917132568359374,0.036041051149368286,0.016493361443281174,0.4147774875164032
1790334789522585000,14.933585205078124,-0.04459316283464432,-0.2528982162475586,0.033597588539123535
1790334789539018800,14.950018798828125,0.02382374368607998,-0.2724458873271942,-0.03420845419168472
1790334789555453700,14.96645361328125,0.08918632566928864,-0.4740314185619354,-0.001832595793530345
1790334789571889400,14.982889404296875,0.04764748737215996,-0.3481931984424591,-0.0555887371301651
1790334789588326000,14.999325927734375,0.02076941914856434,-0.6988298296928406,-0.01466076634824276
1790334789604781000,15.015781005859376,0.06536258012056351,-0.6585127115249634,-0.06719517707824707
1790334789621214200,15.032214111328125,0.07391469180583954,-0.6108652353286743,-0.07941248267889023
1790334789637648100,15.048648193359375,-0.27611109614372253,0.4282165467739105,-0.0959058403968811
1790334789654100500,15.0651005859375,0.33658674359321594,-0.5900958180427551,0.17837265133857727
1790334789670535400,15.081535400390624,0.3127630054950714,-0.4612032473087311,0.12400564551353455
1790334789686981400,15.0979814453125,0.251676470041275,-0.23884831368923187,-0.10323622822761536
1790334789703414500,15.11441455078125,-0.07391469180583954,0.5088507533073425,-0.182648703455925
1790334789719846000,15.130845947265625,0.08246681094169617,-0.4691445231437683,-0.2626720666885376
1790334789736288500,15.14728857421875,0.010995574295520782,-0.38728857040405273,-0.2070833146572113
1790334789752721700,15.1637216796875,0.39706242084503174,-0.5400048494338989,0.1411098688840866
1790334789769173800,15.180173828125,0.05497787147760391,-0.24923302233219147,-0.14844025671482086
1790334789785610000,15.19660986328125,0.303600013256073,-0.3744603991508484,-0.19853121042251587
1790334789802049800,15.2130498046875,0.21807889640331268,-0.0757472887635231,-0.13744467496871948
1790334789818499300,15.229499267578126,0.3689626157283783,-0.4453207552433014,-0.3335324227809906
1790334789834942000,15.24594189453125,0.09468411654233932,-0.4245513379573822,-0.37201693654060364
1790334789851387400,15.262387451171875,0.3139847218990326,-0.3738495409488678,-0.19120082259178162
1790334789867820800,15.27882080078125,0.18081611394882202,-0.7922922372817993,-0.16432274878025055
1790334789884254200,15.295254150390624,0.3078760802745819,-0.7660250067710876,-0.14844025671482086
1790334789900640500,15.311640625,0.048258353024721146,-0.7568620443344116,-0.03176499158143997
1790334789917073700,15.32807373046875,0.24373523890972137,-0.5320636034011841,-0.00733038317412138
1790334789933516300,15.344516357421876,0.1014036312699318,-0.7049384713172913,-0.2919935882091522
1790334789949948000,15.360947998046875,0.22357667982578278,-0.484416127204895,-0.39645153284072876
1790334789966322400,15.377322509765625,0.06658431142568588,-0.3885102868080139,-0.33047810196876526
1790334789982781400,15.393781494140624,0.35735616087913513,-0.19120082259178162,-0.1918116807937622
1790334789999210800,15.410210693359375,0.05803219974040985,-0.7031059265136719,-0.37201693654060364
1790334790015668000,15.42666796875,0.34636059403419495,-0.11789698898792267,-0.1765400618314743
1790334790032098000,15.44309814453125,0.054367005825042725,-0.8533787727355957,-0.4202753007411957
1790334790048529700,15.45952978515625,0.31520646810531616,-0.23335053026676178,-0.10323622822761536
1790334790064973800,15.475973876953125,0.025656340643763542,-1.3066407442092896,-0.4605923891067505
1790334790081476000,15.49247607421875,0.054367005825042725,-0.1319468915462494,0.00855211354792118
1790334790097919000,15.5089189453125,-0.010995574295520782,-1.235169529914856,-0.5119050741195679
1790334790114353400,15.525353515625,0.14049901068210602,-0.2076941877603531,0.08185594528913498
1790334790130786800,15.541786865234375,0.08979719132184982,-1.0036516189575195,-0.47708576917648315
1790334790147244800,15.558244873046876,0.3139847218990326,0.1215621829032898,-0.07330382615327835
1790334790163675400,15.57467529296875,0.19364428520202637,-0.6542366743087769,-0.38606682419776917
1790334790180121600,15.59112158203125,0.3488040566444397,0.43188172578811646,-0.22602014243602753
1790334790196553000,15.607552978515624,0.21563543379306793,-0.8161159753799438,-0.40194934606552124
1790334790212982800,15.623982666015625,0.3536909818649292,0.3384193480014801,-0.13500121235847473
1790334790229424400,15.64042431640625,0.3323107063770294,-0.8069530129432678,-0.4282165467739105
1790334790245855200,15.656855224609375,0.38179078698158264,0.626747727394104,-0.2571742534637451
1790334790262309600,15.6733095703125,0.2981022298336029,-0.40744712948799133,-0.5375614166259766
1790334790278739200,15.6897392578125,0.08429940044879913,0.5112941861152649,-0.45692721009254456
1790334790295170300,15.70617041015625,0.5448917746543884,-0.38179078698158264,-0.02015855349600315
1790334790311609900,15.72260986328125,0.09162978827953339,0.09529497474431992,-0.10262536257505417
1790334790328044300,15.739044189453125,0.19364428520202637,-0.7904596328735352,-0.16371189057826996
1790334790344481000,15.75548095703125,0.08124507963657379,0.20463985204696655,-0.12278391420841217
1790334790360911400,15.771911376953126,0.37629300355911255,0.10690141469240189,-0.07147123664617538
1790334790377343500,15.788343505859375,-0.10018189996480942,0.7037167549133301,-0.09957103431224823
1790334790393800400,15.804800537109376,0.1814269721508026,-0.6524040699005127,-0.1160643994808197
1790334790410233300,15.8212333984375,0.007941247895359993,0.3139847218990326,-0.05314527451992035
1790334790426721500,15.837721435546875,0.11301007121801376,-0.6597344875335693,-0.1875356286764145
1790334790443151600,15.854151611328126,-0.06352998316287994,0.7061602473258972,0.06719517707824707
1790334790459581700,15.870581787109375,0.17959438264369965,-0.5393940210342407,-0.17837265133857727
1790334790476018000,15.887017822265625,0.07330382615327835,0.5711590051651001,0.07696902006864548
1790334790492449300,15.90344921875,0.12034045159816742,-0.24129177629947662,-0.13500121235847473
1790334790508906000,15.919906005859374,-0.09040805697441101,0.9254608750343323,-0.08246681094169617
1790334790525337300,15.93633740234375,0.2565633952617645,-0.0555887371301651,0.048258353024721146
1790334790541767000,15.952766845703126,-0.06719517707824707,0.16798794269561768,-0.05803219974040985
1790334790558211000,15.969211181640626,0.13988813757896423,-0.3225368559360504,-0.051312681287527084
1790334790574647300,15.985647216796876,-0.08429940044879913,0.7825183868408203,0.04214970022439957
1790334790591082800,16.002082763671876,0.1508837193250656,-0.17104226350784302,0.01160643994808197
1790334790607514000,16.01851416015625,-0.03237585723400116,0.6401867866516113,0.04642575979232788
1790334790623945500,16.034945556640626,-0.08857546001672745,-0.47280970215797424,-0.13927727937698364
1790334790640401400,16.0514013671875,0.10506882518529892,0.27550023794174194,0.2272418737411499
1790334790656834800,16.067834716796874,-0.12889257073402405,-0.17959438264369965,-0.07269296050071716
1790334790673266700,16.0842666015625,-0.012828170321881771,0.5406157374382019,0.24984388053417206
1790334790689700900,16.100700927734376,-0.11362093687057495,-0.4404338300228119,-0.13561208546161652
1790334790706136300,16.11713623046875,0.23457226157188416,0.394008070230484,0.20036379992961884
1790334790722591000,16.133591064453125,-0.22113321721553802,-0.12461651116609573,-0.08552113175392151
1790334790739021800,16.150021728515625,0.1270599663257599,0.42088615894317627,0.13011430203914642
1790334790755469800,16.1664697265625,-0.2028072625398636,-0.36651915311813354,-0.11178833991289139
1790334790771902200,16.182902099609375,-0.03481931984424591,0.10995574295520782,0.1814269721508026
1790334790788333300,16.199333251953124,-0.19914206862449646,-0.6505714654922485,-0.04459316283464432
1790334790804767000,16.21576708984375,-0.056810468435287476,0.3604104816913605,0.2565633952617645
1790334790821211400,16.23221142578125,-0.13805554807186127,-0.23945917189121246,0.014049900695681572
1790334790837648000,16.24864794921875,0.06963863968849182,0.27611109614372253,0.16982053220272064
1790334790854084400,16.26508447265625,-0.2125810980796814,-0.34025195240974426,0.024434609338641167
1790334790870520000,16.28152001953125,-0.02871066704392433,0.2015855312347412,0.18936823308467865
1790334790886968600,16.297968505859377,-0.11178833991289139,-0.19608774781227112,-0.00855211354792118
1790334790903401500,16.3144013671875,0.16004669666290283,0.10751228034496307,0.24129177629947662
1790334790919837200,16.330837158203124,0.0708603709936142,0.15760323405265808,0.004886921960860491
1790334790936289800,16.347289794921874,0.12095131725072861,-0.005497787147760391,-0.019547687843441963
1790334790952760300,16.36376025390625,-0.0806342139840126,0.31581732630729675,0.04092797264456749
1790334790969220600,16.380220703125,0.18875735998153687,-0.3139847218990326,0.028099801391363144
1790334790985655300,16.3966552734375,-0.05497787147760391,0.2993239760398865,0.09651670604944229
1790334791002108000,16.41310791015625,0.15271630883216858,-0.16982053220272064,0.1111774742603302
1790334791018540800,16.429540771484376,-0.06902777403593063,0.45631635189056396,0.09162978827953339
1790334791034974500,16.445974365234374,0.1514945775270462,-0.1973094791173935,0.014049900695681572
1790334791051413200,16.462413330078125,0.06169738993048668,-0.2541199326515198,0.14233160018920898
1790334791067872300,16.478872314453124,-0.10934487730264664,-0.6017022728919983,-0.07880161702632904
1790334791084284700,16.49528466796875,-0.04214970022439957,0.033597588539123535,-0.12217304855585098
1790334791100738800,16.51173876953125,-0.08491026610136032,-0.11789698898792267,-0.14355333149433136
1790334791117174300,16.52817431640625,0.03237585723400116,0.10506882518529892,0.07696902006864548
1790334791133675300,16.54467529296875,-0.04337143152952194,-0.5760459303855896,0.030543262138962746
1790334791150122000,16.5611220703125,0.05192354694008827,-0.05925392732024193,-0.12889257073402405
1790334791165588500,16.57658837890625,-0.06536258012056351,-0.05803219974040985,-0.039706241339445114
1790334791182020900,16.593020751953127,0.09773843735456467,0.030543262138962746,0.007941247895359993
1790334791198454500,16.60945458984375,-0.042760565876960754,-0.36529740691185,-0.00427605677396059
1790334791214887400,16.625887451171874,0.11239920556545258,-0.018936822190880775,0.16920967400074005
1790334791231321900,16.64232177734375,-0.029932396486401558,-0.28649580478668213,0.04153883829712868
1790334791247762700,16.6587626953125,0.13927727937698364,-0.12461651116609573,0.13805554807186127
1790334791264198000,16.675197998046876,-0.02871066704392433,0.05009094998240471,0.04886921867728233
1790334791280633900,16.6916337890625,0.09712757170200348,-0.31520646810531616,-0.12950342893600464
1790334791297094700,16.7080947265625,-0.019547687843441963,0.5198463201522827,-0.01710422709584236
1790334791313536000,16.724535888671873,0.15027284622192383,-0.43615779280662537,-0.14049901068210602
1790334791329971200,16.74097119140625,-0.02626720629632473,-0.28466320037841797,-0.08307767659425735
1790334791346407700,16.75740771484375,-0.09224065393209457,-0.47342056035995483,-0.21502456068992615
1790334791362845200,16.77384521484375,-0.09834930300712585,0.24495697021484375,-0.1459967941045761
1790334791379303200,16.79030322265625,-0.07391469180583954,-0.1771509200334549,0.003054326167330146
1790334791395754200,16.806754150390624,0.12400564551353455,-0.3029891550540924,0.10934487730264664
1790334791412187400,16.8231875,-0.07391469180583954,-0.3988949954509735,0.09468411654233932
1790334791428622600,16.83962255859375,0.10934487730264664,-0.13011430203914642,-0.2583959996700287
1790334791445078000,16.856078125,-0.01160643994808197,0.001832595793530345,-0.08674286305904388
1790334791461544700,16.872544677734375,0.04398229718208313,0.10567969083786011,0.12400564551353455
1790334791477978400,16.888978271484376,-0.025656340643763542,-0.3433062732219696,-0.08124507963657379
1790334791494432000,16.905431884765626,0.07330382615327835,-0.11789698898792267,0.00366519158706069
1790334791510866700,16.92186669921875,-0.15027284622192383,0.3280346393585205,-0.17348572611808777
1790334791527300000,16.938300048828125,0.15760323405265808,-0.1508837193250656,0.11056660860776901
1790334791543740000,16.954739990234376,-0.022602014243602753,-0.2968805134296417,-0.2119702398777008
1790334791560182300,16.971182373046876,0.16493362188339233,-0.1973094791173935,-0.08918632566928864
1790334791576668200,16.987668212890625,0.00855211354792118,0.46792277693748474,-0.13988813757896423
1790334791593107500,17.004107421875,-0.0354301854968071,-0.6762278079986572,-0.31520646810531616
1790334791609544400,17.02054443359375,0.02871066704392433,0.12522737681865692,0.08979719132184982
1790334791626001000,17.0370009765625,0.0006108652451075613,-0.4893030524253845,-0.21013765037059784
1790334791642436000,17.05343603515625,0.22663100063800812,0.29077184200286865,0.02321287989616394
1790334791658882000,17.069882080078123,-0.06169738993048668,-0.47219884395599365,-0.17470745742321014
1790334791675317200,17.086317138671873,0.0403171069920063,-0.2981022298336029,-0.1716531366109848
1790334791691775000,17.10277490234375,-0.006719517521560192,0.09712757170200348,0.021991148591041565
1790334791708242700,17.11924267578125,0.1160643994808197,0.029932396486401558,0.015882495790719986
1790334791724677000,17.135677001953123,0.20097467303276062,-0.33597588539123535,-0.0507018156349659
1790334791741134600,17.152134521484374,-0.010995574295520782,-0.021991148591041565,-0.029932396486401558
1790334791757571000,17.168571044921876,-0.06963863968849182,0.4141666293144226,-0.045204028487205505
1790334791774005800,17.185005859375,0.1466076523065567,-0.43799036741256714,-0.07880161702632904
1790334791790440000,17.20143994140625,0.06475171446800232,0.08552113175392151,0.04764748737215996
1790334791806883000,17.217883056640623,0.015882495790719986,-0.18387043476104736,-0.10262536257505417
1790334791823320300,17.2343203125,0.11850785464048386,0.13500121235847473,-0.12950342893600464
1790334791839757600,17.250757568359376,-0.10201449692249298,-0.3903428912162781,-0.16859880089759827
1790334791856198100,17.2671982421875,0.016493361443281174,0.2730567753314972,0.08429940044879913
1790334791872660000,17.283659912109375,-0.08979719132184982,-0.1459967941045761,-0.06230825558304787
1790334791889096400,17.300096435546877,0.009773843921720982,0.007941247895359993,-0.18020524084568024
1790334791905536300,17.316536376953124,-0.0012217304902151227,-0.21563543379306793,-0.015882495790719986
1790334791921969400,17.332969482421873,0.07024950534105301,-0.3396410644054413,-0.16920967400074005
1790334791938342400,17.34934228515625,0.04214970022439957,0.47708576917648315,0.03176499158143997
1790334791954792400,17.36579248046875,0.09957103431224823,-0.26633724570274353,-0.05925392732024193
1790334791971224000,17.38222412109375,0.08368854224681854,0.11239920556545258,0.08246681094169617
1790334791987673600,17.398673583984376,0.15332718193531036,-0.1313360333442688,0.029932396486401558
1790334792004103000,17.41510302734375,-0.13561208546161652,0.6933320760726929,-0.04092797264456749
1790334792020535600,17.43153564453125,0.2626720666885376,-0.45204028487205505,-0.05009094998240471
1790334792036978700,17.447978759765626,0.060475658625364304,0.18814650177955627,0.036651913076639175
1790334792053419300,17.464419189453125,-0.012217304669320583,-0.24007004499435425,-0.08002334833145142
1790334792069896200,17.480896240234376,0.015271631069481373,0.5186246037483215,0.03420845419168472
1790334792086330000,17.497330078125,-0.030543262138962746,-0.4502076804637909,-0.19303341209888458
1790334792102762800,17.5137626953125,-0.03237585723400116,-0.11850785464048386,-0.07880161702632904
1790334792119214000,17.530214111328124,-0.08735372871160507,-0.2370157092809677,0.05497787147760391
1790334792135650000,17.546650146484374,-0.00427605677396059,-0.24190263450145721,-0.11484266817569733
1790334792152138000,17.563137939453124,-0.039706241339445114,-0.09773843735456467,0.06414084881544113
1790334792168574700,17.57957470703125,0.0659734457731247,-0.1814269721508026,-0.00366519158706069
1790334792185012000,17.596011962890625,0.16920967400074005,0.1472185254096985,0.06902777403593063
1790334792201454600,17.61245458984375,-0.013439035043120384,0.00366519158706069,-0.14538592100143433
1790334792217890600,17.628890625,0.09773843735456467,0.2583959996700287,0.0708603709936142
1790334792234352400,17.645352294921874,0.04153883829712868,-0.3701843321323395,-0.04581489413976669
1790334792250785800,17.661785888671876,-0.00427605677396059,0.5106833577156067,0.08979719132184982
1790334792267222500,17.678222412109374,-0.018325956538319588,-0.543059229850769,-0.13500121235847473
1790334792283682800,17.694682861328126,-0.01160643994808197,0.48808133602142334,0.07208210229873657
1790334792300124700,17.711124755859377,-0.1765400618314743,-0.3390302062034607,-0.152105450630188
1790334792316563200,17.727563232421875,0.060475658625364304,0.2632829248905182,0.07330382615327835
1790334792333002000,17.744001953125,0.001832595793530345,-0.7898487448692322,0.013439035043120384
1790334792349440800,17.760440673828125,0.07208210229873657,-0.08002334833145142,-0.025656340643763542
1790334792365887000,17.776886962890625,-0.054367005825042725,0.2767219543457031,0.03176499158143997
1790334792382325200,17.7933251953125,0.12889257073402405,0.0006108652451075613,0.013439035043120384
1790334792398761500,17.809761474609374,-0.045204028487205505,0.025656340643763542,-0.15515977144241333
1790334792415199000,17.826198974609376,0.34086281061172485,-0.2974913716316223,0.1111774742603302
1790334792431635000,17.842635009765626,-0.18387043476104736,0.53328537940979,-0.007941247895359993
1790334792448068900,17.85906884765625,-0.001832595793530345,-0.3500257730484009,-0.2736676335334778
1790334792464502500,17.87550244140625,0.1264491081237793,0.152105450630188,-0.05803219974040985
1790334792480950000,17.891949951171874,-0.1814269721508026,-0.23518311977386475,-0.1875356286764145
1790334792497385500,17.908385498046876,0.17776179313659668,0.2583959996700287,0.10018189996480942
1790334792513820400,17.9248203125,-0.03176499158143997,-0.4862487316131592,-0.05864306539297104
1790334792530253000,17.941253173828127,0.27122417092323303,0.06841690838336945,0.21930062770843506
1790334792546694400,17.9576943359375,-0.13377949595451355,0.13561208546161652,-0.08857546001672745
1790334792563131600,17.974131591796876,0.3903428912162781,-0.16982053220272064,0.17898350954055786
1790334792579567600,17.990567626953126,-0.06108652427792549,0.3023782968521118,-0.0006108652451075613
1790334792596004000,18.007004150390625,-0.11239920556545258,-0.28466320037841797,-0.323147714138031
1790334792612447200,18.023447265625,0.07208210229873657,0.3286454975605011,-0.05192354694008827
1790334792628884200,18.03988427734375,-0.10506882518529892,-0.43249258399009705,-0.20402899384498596
1790334792645319400,18.0563193359375,0.05864306539297104,0.05253441259264946,0.16737708449363708
1790334792661755000,18.0727548828125,0.021380282938480377,0.09712757170200348,-0.02015855349600315
1790334792678191600,18.089191650390624,0.19058994948863983,-0.0959058403968811,0.12828169763088226
1790334792694630100,18.105630126953123,0.03420845419168472,0.45204028487205505,-0.07452555745840073
1790334792711066400,18.12206640625,0.01710422709584236,-0.4599815309047699,-0.2974913716316223
1790334792727513300,18.138513427734374,-0.04703662544488907,0.28588494658470154,-0.05925392732024193
1790334792743953400,18.154953369140625,-0.08246681094169617,-0.4050036668777466,-0.18081611394882202
1790334792760392200,18.17139208984375,0.14049901068210602,0.32070425152778625,0.06719517707824707
1790334792776830500,18.18783056640625,-0.11789698898792267,-0.29993483424186707,-0.1007927656173706
1790334792793274000,18.204274169921874,0.10567969083786011,0.1368338167667389,0.18814650177955627
1790334792809713700,18.220713623046876,-0.11301007121801376,0.2528982162475586,0.009162978269159794
1790334792826153200,18.2371533203125,0.1918116807937622,-0.3988949954509735,0.02871066704392433
1790334792842591200,18.25359130859375,0.01160643994808197,0.26450464129447937,0.014049900695681572
1790334792859033900,18.270033935546873,-0.3323107063770294,-0.10201449692249298,-0.27488934993743896
1790334792875470000,18.286469970703124,-0.2168571650981903,0.3878994286060333,-0.08185594528913498
1790334792891909600,18.30290966796875,0.1765400618314743,-0.19853121042251587,0.24190263450145721
1790334792908349400,18.319349365234373,-0.07208210229873657,-0.6890559792518616,-0.12095131725072861
1790334792924790300,18.335790283203124,0.018936822190880775,0.6682865619659424,-0.013439035043120384
1790334792941231400,18.3522314453125,0.12522737681865692,-0.4184426963329315,-0.1973094791173935
1790334792957669600,18.368669677734374,-0.03726277872920036,0.19486601650714874,-0.09040805697441101
1790334792974134500,18.385134521484375,0.10384709388017654,-0.29565876722335815,0.021991148591041565
1790334792990622000,18.4016220703125,-0.10934487730264664,0.252287358045578,0.003054326167330146
1790334793007060200,18.418060302734375,0.029932396486401558,-0.49724429845809937,-0.003054326167330146
1790334793023518500,18.4345185546875,0.05864306539297104,-0.39095374941825867,0.12095131725072861
1790334793039957200,18.450957275390625,-0.12400564551353455,0.47280970215797424,0.17409659922122955
1790334793056392000,18.467391845703126,0.05009094998240471,-0.5290092825889587,-0.19425514340400696
1790334793072829200,18.4838291015625,-0.05619960278272629,0.3390302062034607,-0.15393804013729095
1790334793089230800,18.50023095703125,0.25595253705978394,0.06658431142568588,0.10506882518529892
1790334793105691400,18.51669140625,0.014049900695681572,0.07024950534105301,0.00427605677396059
1790334793122128000,18.5331279296875,-0.2382374405860901,-0.2736676335334778,-0.059864792972803116
1790334793138569500,18.549569580078124,0.0507018156349659,0.21624629199504852,0.23640485107898712
1790334793155007200,18.56600732421875,-0.019547687843441963,0.059864792972803116,-0.18509216606616974
1790334793171446300,18.5824462890625,0.4245513379573822,0,0.12034045159816742
1790334793187899600,18.598899658203123,-0.09651670604944229,0.2119702398777008,-0.18081611394882202
1790334793204312000,18.61531201171875,-0.15760323405265808,-0.5687155723571777,-0.22968533635139465
1790334793220700400,18.631700439453127,-0.024434609338641167,0.30604347586631775,0.06841690838336945
1790334793237138700,18.648138671875,-0.25473082065582275,-0.46242499351501465,-0.1215621829032898
1790334793253574700,18.66457470703125,0.08124507963657379,0,0.08124507963657379
1790334793270019300,18.681019287109375,0.2015855312347412,0.3127630054950714,0.0024434609804302454
1790334793286462200,18.697462158203123,0.1722639948129654,-0.655458390712738,-0.2174680233001709
1790334793302957600,18.71395751953125,0.09834930300712585,0.4911356568336487,-0.024434609338641167
1790334793319398400,18.7303984375,-0.1716531366109848,-0.3695734739303589,-0.2834414839744568
1790334793335836700,18.746836669921876,0.019547687843441963,0.4337143301963806,-0.036651913076639175
1790334793352291800,18.763291748046875,-0.15515977144241333,-0.3732386529445648,-0.19120082259178162
1790334793368727800,18.779727783203125,0.1875356286764145,-0.42638394236564636,0.13011430203914642
1790334793385175000,18.796175048828125,0.16554448008537292,0.28038713335990906,0.09407325088977814
1790334793401617200,18.8126171875,0.13927727937698364,-0.33047810196876526,-0.14355333149433136
1790334793418058000,18.82905810546875,-0.08857546001672745,0.7079927921295166,-0.009773843921720982
1790334793434502100,18.845502197265624,-0.10567969083786011,-0.41111230850219727,-0.342695415019989
1790334793450938600,18.861938720703126,0.16249015927314758,0.05375614017248154,0.02321287989616394
1790334793467397000,18.878397216796873,0.05497787147760391,-0.2840523421764374,-0.14477506279945374
1790334793483836200,18.894836181640624,0.0959058403968811,-0.30054569244384766,-0.11178833991289139
1790334793500276200,18.911276123046875,-0.23273965716362,0.5271766781806946,-0.16493362188339233
1790334793516719900,18.927719970703127,0.2889392673969269,-0.17348572611808777,0.060475658625364304
1790334793533163800,18.944163818359375,0.005497787147760391,-0.09651670604944229,-0.21807889640331268
1790334793549608000,18.96060791015625,-0.19486601650714874,0.21930062770843506,-0.13011430203914642
1790334793566049000,18.977049072265626,0.13866640627384186,0.12767083942890167,-0.01038470957428217
1790334793582488600,18.993488525390624,0.0757472887635231,-0.16737708449363708,-0.15271630883216858
1790334793598947000,19.009947021484376,-0.007941247895359993,-0.31031954288482666,-0.06291911751031876
1790334793615385900,19.0263857421875,-0.24373523890972137,0.42088615894317627,-0.054367005825042725
1790334793631829200,19.042829345703126,0.24862214922904968,-0.12522737681865692,0.16982053220272064
1790334793648266800,19.059266845703124,-0.02871066704392433,-0.003054326167330146,-0.17287486791610718
1790334793664707600,19.07570751953125,-0.2321287989616394,0.27550023794174194,-0.054367005825042725
1790334793681159400,19.092159423828125,0.07635815441608429,0.17898350954055786,-0.004886921960860491
1790334793697601300,19.108601318359376,-0.028099801391363144,0.11667526513338089,-0.05192354694008827
1790334793714068000,19.12506787109375,0.17898350954055786,-0.646906316280365,0.06719517707824707
1790334793730374700,19.141374755859374,-0.11056660860776901,0.4538728892803192,0.08918632566928864
1790334793746806300,19.15780615234375,-0.22418753802776337,-0.09162978827953339,-0.3640756905078888
1790334793763226000,19.17422607421875,0.10873401165008545,0.24862214922904968,-0.17837265133857727
1790334793779701200,19.190701171875,0.31154128909111023,0.31642818450927734,0.1973094791173935
1790334793796155400,19.2071552734375,0.05192354694008827,-0.588874101638794,-0.05803219974040985
1790334793812597000,19.223596923828126,-0.19364428520202637,0.48319441080093384,0.07941248267889023
1790334793829035300,19.24003515625,0.016493361443281174,-0.7666358947753906,-0.24007004499435425
1790334793845493000,19.256492919921875,-0.19364428520202637,0.3604104816913605,0.05253441259264946
1790334793861930500,19.272930419921874,0.12095131725072861,0.40683624148368835,0.18631389737129211
1790334793878382000,19.289382080078123,0.16554448008537292,-0.5222898125648499,-0.05253441259264946
1790334793894817800,19.30581787109375,-0.07208210229873657,0.44715335965156555,0.05009094998240471
1790334793911263700,19.322263671875,0.22907446324825287,0.02932153269648552,0.16737708449363708
1790334793927712300,19.338712158203126,-0.17287486791610718,0.2840523421764374,-0.22418753802776337
1790334793944122000,19.3551220703125,0.24923302233219147,0.24678955972194672,0.031154127791523933
1790334793960568600,19.371568603515627,0.012828170321881771,0.3695734739303589,-0.12217304855585098
1790334793976880600,19.387880615234376,-0.2278527319431305,-0.27122417092323303,0.06414084881544113
1790334793993320400,19.404320556640624,0.005497787147760391,-0.22540926933288574,0.35552358627319336
1790334794009775000,19.420775146484374,0.1716531366109848,-0.6585127115249634,-0.03787364438176155
1790334794026246000,19.437245849609376,-0.14416420459747314,0.09834930300712585,-0.16982053220272064
1790334794042698800,19.45369873046875,-0.23945917189121246,0.7092145681381226,-0.09468411654233932
1790334794059140000,19.47014013671875,-0.059864792972803116,-0.04703662544488907,0.014049900695681572
1790334794075580400,19.486580322265624,0.22907446324825287,-0.1771509200334549,0.2076941877603531
1790334794091934700,19.502934814453123,-0.11789698898792267,-0.18936823308467865,0.02687807008624077
1790334794108275700,19.519275634765624,0.36590829491615295,0.3176499307155609,0.2541199326515198
1790334794124713200,19.535713134765626,-0.12828169763088226,0.3549126982688904,-0.22052235901355743
1790334794141149200,19.552149169921876,0.44715335965156555,0.07635815441608429,-0.07147123664617538
1790334794157452000,19.5684521484375,0.030543262138962746,0.2791654169559479,-0.10384709388017654
1790334794173887200,19.58488720703125,-0.27977627515792847,-0.2840523421764374,-0.0354301854968071
1790334794190301700,19.6013017578125,-0.14355333149433136,0.12400564551353455,0.33536502718925476
1790334794206742300,19.6177421875,-0.14538592100143433,-0.36713001132011414,0.01466076634824276
1790334794223177500,19.634177490234375,0.32070425152778625,0.07819075137376785,0.18325957655906677
1790334794239615200,19.650615234375,-0.001832595793530345,0.3445279896259308,-0.2070833146572113
1790334794256052200,19.66705224609375,-0.252287358045578,-0.31154128909111023,-0.323147714138031
1790334794272495900,19.683495849609375,-0.09468411654233932,0.304210901260376,-0.006108652334660292
1790334794288961300,19.699961181640624,0.17776179313659668,0.18081611394882202,0.32559117674827576
1790334794305397800,19.716397705078126,0.054367005825042725,-0.3885102868080139,-0.01710422709584236
1790334794321836500,19.73283642578125,-0.033597588539123535,0.4758640229701996,0.0910189226269722
1790334794338287400,19.749287353515626,0.07024950534105301,-0.6505714654922485,-0.13011430203914642
1790334794354725400,19.765725341796873,-0.10018189996480942,0.42271876335144043,-0.08246681094169617
1790334794371189000,19.78218896484375,-0.17592918872833252,-0.3933972120285034,-0.18875735998153687
1790334794387627800,19.798627685546876,0.021380282938480377,-0.025656340643763542,0.12339477986097336
1790334794404066600,19.815066650390627,0.17898350954055786,0.4178318381309509,0.27061331272125244
1790334794420505600,19.831505615234374,0.06108652427792549,-0.6640105247497559,-0.1411098688840866
1790334794436943600,19.847943603515624,-0.2742784917354584,0.6707300543785095,-0.04948008432984352
1790334794453415200,19.864415283203126,0.05497787147760391,0.05375614017248154,0.11545353382825851
1790334794469852000,19.880851806640624,0.20830504596233368,-0.14416420459747314,0.08979719132184982
1790334794486290200,19.897290283203127,-0.10934487730264664,0.11423180252313614,0.02932153269648552
1790334794502729500,19.9137294921875,0.2773328125476837,0.2565633952617645,0.15454891324043274
1790334794519175000,19.9301748046875,-0.3323107063770294,0.19547687470912933,-0.2822197377681732
1790334794535636500,19.946636474609374,0.1612684279680252,-0.12217304855585098,0.11972958594560623
1790334794552077800,19.963077880859377,-0.06963863968849182,0.3549126982688904,0.13011430203914642
1790334794568518100,19.97951806640625,-0.33047810196876526,-0.6805039048194885,-0.14477506279945374
1790334794584974800,19.995974853515627,0.08552113175392151,0.0806342139840126,0.2840523421764374
1790334794601417200,20.012417236328126,0.06108652427792549,0.2669481039047241,-0.1875356286764145
1790334794617886200,20.02888623046875,0.2773328125476837,-0.2321287989616394,-0.05497787147760391
1790334794634328300,20.045328369140623,-0.2070833146572113,0.46731191873550415,-0.15515977144241333
1790334794650768400,20.061768310546874,0.01466076634824276,0.14782938361167908,0.22602014243602753
1790334794667211000,20.0782109375,-0.04886921867728233,-0.10262536257505417,0.22052235901355743
1790334794683651600,20.094651611328125,-0.13439035415649414,-0.14294247329235077,0.09224065393209457
1790334794700097800,20.111097900390625,0.3494149148464203,0.11972958594560623,0.3176499307155609
1790334794716540400,20.12754052734375,-0.1716531366109848,0.3023782968521118,-0.19120082259178162
1790334794732982800,20.143982666015624,0.3090978264808655,0.016493361443281174,0.2125810980796814
1790334794749424600,20.160424560546875,-0.18997909128665924,0.23396138846874237,-0.045204028487205505
1790334794765871000,20.17687109375,-0.1215621829032898,-0.12339477986097336,-0.1160643994808197
1790334794782335500,20.19333544921875,0.1111774742603302,-0.14233160018920898,0.20036379992961884
1790334794798776600,20.209776611328124,-0.07452555745840073,0.13011430203914642,-0.10262536257505417
1790334794815221500,20.226221435546876,-0.05803219974040985,-0.2528982162475586,-0.10201449692249298
