time,seconds_elapsed,z,y,x
1790334774744669700,0.155669677734375,6.337451934814453,6.892906665802002,0.8331822156906128
1790334774761086000,0.1720859375,6.84981107711792,6.854599475860596,0.8068459630012512
1790334774777535000,0.188534912109375,7.105990409851074,6.607996463775635,0.5099649429321289
1790334774793929500,0.204929443359375,7.216124057769775,6.0621185302734375,-0.3495534360408783
1790334774810404900,0.22140478515625,6.531382083892822,6.042964935302734,-0.730231523513794
1790334774826875000,0.237875,6.071695327758789,6.598419666290283,-0.33279404044151306
1790334774843326500,0.254326416015625,6.021417140960693,7.69735860824585,0.912190854549408
1790334774859816200,0.270816162109375,5.7556610107421875,7.841010570526123,1.5705963373184204
1790334774876297200,0.287297119140625,5.329493045806885,7.757213592529297,2.0422539710998535
1790334774892762600,0.3037626953125,4.67827033996582,7.331045627593994,1.8914192914962769
1790334774909231000,0.320231201171875,4.201824188232422,7.094019412994385,1.4939818382263184
1790334774925683200,0.33668310546875,4.4532151222229,7.01979923248291,0.6512228846549988
1790334774942176000,0.353176025390625,5.39174222946167,7.422025203704834,0.33997663855552673
1790334774958651600,0.369651611328125,6.3733649253845215,7.33583402633667,0.2082955539226532
1790334774975113700,0.38611376953125,5.341464042663574,7.144298076629639,0.9888052940368652
1790334774991598600,0.4025986328125,4.639962673187256,6.785167694091797,1.7884687185287476
1790334775008048000,0.419048095703125,6.744466304779053,6.04775333404541,0.790086567401886
1790334775024514300,0.435514404296875,9.121908187866211,5.116408824920654,-0.5363011956214905
1790334775041013000,0.452012939453125,10.63743782043457,5.149928092956543,-0.6416460275650024
1790334775057488400,0.46848828125,10.508151054382324,5.585672378540039,0.26096799969673157
1790334775073997300,0.484997314453125,10.405200958251953,5.612008571624756,0.689530074596405
1790334775090449000,0.501448974609375,9.737217903137207,5.123591423034668,1.1779472827911377
1790334775106936300,0.517936279296875,8.791508674621582,4.944026470184326,2.293645143508911
1790334775123418600,0.534418701171875,7.728483200073242,4.874594688415527,3.1483752727508545
1790334775139905800,0.55090576171875,7.297526836395264,4.726154327392578,2.806004285812378
1790334775156398800,0.56739892578125,8.149862289428711,4.4939165115356445,1.0558429956436157
1790334775172849000,0.583848876953125,9.11233139038086,4.1611223220825195,-0.8044517636299133
1790334775189338400,0.60033837890625,9.880870819091797,4.302380561828613,-1.45806884765625
1790334775205839000,0.616839111328125,9.66299819946289,4.8937482833862305,-0.5171475410461426
1790334775222303700,0.6333037109375,8.774748802185059,4.888959884643555,0.14844051003456116
1790334775238786300,0.649786376953125,8.094796180725098,4.714183330535889,0.2106897532939911
1790334775255242800,0.66624267578125,8.092401504516602,4.831499099731445,-0.22266076505184174
1790334775271719200,0.68271923828125,8.310274124145508,4.797980308532715,-1.0893617868423462
1790334775288193300,0.699193359375,9.042900085449219,4.78122091293335,-1.7094600200653076
1790334775304687900,0.71568798828125,9.713275909423828,4.675876140594482,-1.434126853942871
1790334775321175600,0.732175537109375,10.002974510192871,4.728548526763916,-1.0007762908935547
1790334775337631000,0.748630859375,9.96945571899414,4.704606533050537,-1.3694833517074585
1790334775354105300,0.765105224609375,9.916783332824707,4.611232280731201,-1.3120225667953491
1790334775370581500,0.78158154296875,10.182539939880371,4.850652694702148,-0.8978256583213806
1790334775387046700,0.798046630859375,9.241618156433105,4.766855716705322,-0.9696516990661621
1790334775403499300,0.814499267578125,10.520122528076172,4.426878929138184,-1.113303780555725
1790334775419949000,0.830948974609375,10.536881446838379,4.656722068786621,0.15562310814857483
1790334775436414000,0.8474140625,9.603142738342285,4.0749311447143555,0.8307880163192749
1790334775452872000,0.863871826171875,9.006986618041992,4.793191909790039,1.599326729774475
1790334775469324300,0.88032421875,8.925583839416504,4.661510944366455,0.8403648138046265
1790334775485817000,0.896817138671875,6.821080684661865,4.659116744995117,-0.569819986820221
1790334775502269000,0.91326904296875,6.782773494720459,4.216189384460449,-3.0310592651367188
1790334775518713900,0.9297138671875,10.287884712219238,4.666299343109131,-4.955997467041016
1790334775535187000,0.94618701171875,10.958261489868164,5.995080947875977,-4.5154643058776855
1790334775551661000,0.9626611328125,9.454702377319336,6.0405707359313965,-1.525106430053711
1790334775568152800,0.97915283203125,6.538564682006836,5.34625244140625,0.5913678407669067
1790334775584603600,0.995603759765625,6.864176273345947,5.394136428833008,1.8411411046981812
1790334775601069300,1.0120693359375,6.560112476348877,5.386953830718994,-0.33518823981285095
1790334775617550800,1.02855078125,6.658275127410889,5.566518783569336,-0.9002198576927185
1790334775634037800,1.045037841796875,6.6630635261535645,5.549759387969971,-1.3287819623947144
1790334775650529800,1.06152978515625,7.038952827453613,5.954379558563232,-1.6759412288665771
1790334775666978800,1.077978759765625,7.3669586181640625,6.402095317840576,-0.790086567401886
1790334775683465700,1.0944658203125,9.01895809173584,6.0190229415893555,-0.7374141216278076
1790334775699937000,1.11093701171875,9.849745750427246,6.392518520355225,-0.1364694982767105
1790334775716403200,1.1274033203125,9.552865028381348,6.624756336212158,-0.12449848651885986
1790334775732870000,1.143869873046875,9.193734169006348,6.698976516723633,-0.730231523513794
1790334775749316400,1.16031640625,8.561665534973145,6.40927791595459,-0.9768342971801758
1790334775765786000,1.1767861328125,9.241618156433105,5.671864032745361,0.021547814831137657
1790334775782263300,1.19326318359375,7.850587368011475,5.430049419403076,0.7781155705451965
1790334775798746000,1.20974609375,10.204087257385254,5.78678560256958,0.43335050344467163
1790334775815253500,1.22625341796875,9.490615844726562,6.502651691436768,0.7182605266571045
1790334775831704600,1.24270458984375,8.966285705566406,8.08043098449707,0.26096799969673157
1790334775848194800,1.25919482421875,8.022970199584961,7.082048416137695,-1.6089035272598267
1790334775864680700,1.2756806640625,4.436455726623535,6.189011573791504,-1.2737152576446533
1790334775881154300,1.292154296875,4.592078685760498,6.315904140472412,1.6615760326385498
1790334775897645300,1.308645263671875,5.990292549133301,6.6391215324401855,2.078166961669922
1790334775914098400,1.325098388671875,6.847416877746582,6.282385349273682,2.5713725090026855
1790334775930546700,1.341546630859375,6.517016887664795,5.506663799285889,1.5753847360610962
1790334775947052300,1.35805224609375,6.617573261260986,4.81473970413208,0.27054479718208313
1790334775963516000,1.374515869140625,7.139509677886963,4.98472785949707,1.1971008777618408
1790334775980029700,1.39102978515625,9.555258750915527,5.145139217376709,1.900996208190918
1790334775996488400,1.407488525390625,9.131484985351562,3.6104562282562256,3.090914487838745
1790334776012959000,1.423958984375,9.093177795410156,2.6623523235321045,3.6296098232269287
1790334776029453000,1.440453125,8.650250434875488,1.742978811264038,3.004723072052002
1790334776045934600,1.4569345703125,8.176198959350586,1.4772224426269531,2.4612393379211426
1790334776062419700,1.473419677734375,9.876082420349121,1.113303780555725,0.8834604024887085
1790334776078876000,1.4898759765625,9.461885452270508,0.3256114423274994,0.6655880808830261
1790334776095352000,1.50635205078125,8.396465301513672,-0.40222588181495667,0.44532153010368347
1790334776111864300,1.5228642578125,7.577648162841797,-1.1300631761550903,0.14844051003456116
1790334776128346600,1.5393466796875,8.595184326171875,-1.6927006244659424,1.4844050407409668
1790334776144817200,1.555817138671875,11.650185585021973,-1.98958158493042,3.2154128551483154
1790334776161271600,1.572271484375,14.319720268249512,-3.2393548488616943,0.5841852426528931
1790334776177744000,1.588743896484375,11.295844078063965,-3.557783842086792,-0.10773907601833344
1790334776194222600,1.60522265625,8.887276649475098,-4.307168960571289,-0.2944868206977844
1790334776210681300,1.621681396484375,9.332598686218262,-4.886565685272217,-0.6655880808830261
1790334776227177000,1.638177001953125,11.111490249633789,-4.189853191375732,1.1971008777618408
1790334776243632600,1.654632568359375,8.480262756347656,-1.2641384601593018,2.6455929279327393
1790334776260083500,1.67108349609375,7.350199222564697,2.3989901542663574,4.831499099731445
1790334776276571600,1.687571533203125,0.8906430602073669,1.436521053314209,2.276885747909546
1790334776293047600,1.704047607421875,8.190564155578613,2.250549554824829,-0.8212111592292786
1790334776309542700,1.720542724609375,10.72602367401123,3.023876667022705,-2.1930887699127197
1790334776325995500,1.73699560546875,11.753135681152344,2.8826189041137695,-0.2059013396501541
1790334776342441700,1.753441650390625,11.12106704711914,2.6240451335906982,-0.3471592366695404
1790334776358959400,1.76995947265625,9.548076629638672,3.426102638244629,-0.5530605912208557
1790334776375439600,1.786439697265625,5.07570743560791,4.185064792633057,1.2689268589019775
1790334776391914000,1.8029140625,5.453991413116455,4.95120906829834,2.073378562927246
1790334776408370200,1.8193701171875,8.719682693481445,5.281609058380127,2.070984363555908
1790334776424861700,1.83586181640625,8.271966934204102,5.157110691070557,2.631227731704712
1790334776441337900,1.852337890625,8.719682693481445,4.955997467041016,3.0095114707946777
1790334776457801700,1.8688017578125,10.864887237548828,4.28322696685791,2.4013843536376953
1790334776474289200,1.8852890625,11.26950740814209,3.423708438873291,1.2018892765045166
1790334776490737000,1.90173681640625,9.648633003234863,3.2345664501190186,0.3447650372982025
1790334776507204600,1.91820458984375,9.354146003723145,3.339911460876465,0.15322890877723694
1790334776523672800,1.9346728515625,10.232817649841309,2.9712042808532715,0.4213795065879822
1790334776540152600,1.951152587890625,10.046070098876953,2.5953147411346436,-0.11252748221158981
1790334776556642300,1.967642333984375,9.81143856048584,2.3989901542663574,-1.0055646896362305
1790334776573092600,1.984092529296875,9.923966407775879,2.1715409755706787,-0.629675030708313
1790334776589556700,2.000556640625,10.18493366241455,2.231395959854126,0.2585737705230713
1790334776606039300,2.017039306640625,9.583989143371582,2.0925323963165283,0.38546648621559143
1790334776622525200,2.033525146484375,8.803479194641113,1.6089035272598267,0.004788403399288654
1790334776638984400,2.049984375,8.702922821044922,1.558625340461731,-0.6584054827690125
1790334776655432400,2.066432373046875,8.71728801727295,1.8411411046981812,-0.6775590777397156
1790334776671917800,2.082917724609375,8.183381080627441,2.032677173614502,-0.15083470940589905
1790334776688385300,2.09938525390625,7.905653953552246,1.8794482946395874,0.5482721924781799
1790334776704862200,2.1158623046875,8.075642585754395,1.5083470344543457,1.2042834758758545
1790334776721342000,2.132342041015625,7.778761386871338,1.1228805780410767,1.3287819623947144
1790334776737789700,2.148789794921875,7.661445617675781,0.6512228846549988,0.768538773059845
1790334776754257400,2.16525732421875,7.137115478515625,0.2561795711517334,0.3711012601852417
1790334776770751500,2.18175146484375,6.531382083892822,-0.038307227194309235,0.05027823522686958
1790334776787228700,2.198228759765625,5.750872611999512,-0.18914192914962769,-0.07900865375995636
1790334776803753500,2.21475341796875,6.258443355560303,-0.2059013396501541,0.4908113479614258
1790334776820208000,2.2312080078125,7.716512203216553,-0.11013327538967133,0.6392518281936646
1790334776836678100,2.24767822265625,8.018181800842285,-0.12689268589019775,0.24181437492370605
1790334776853184500,2.2641845703125,7.723694801330566,-0.16519992053508759,0.24420857429504395
1790334776869666600,2.28066650390625,7.316680431365967,-0.26575639843940735,0.16998831927776337
1790334776886132000,2.297132080078125,8.35097599029541,-0.7374141216278076,-0.4620809257030487
1790334776902580000,2.313580078125,9.974244117736816,-1.0414776802062988,-0.2298433631658554
1790334776919045400,2.33004541015625,11.769895553588867,-1.4652514457702637,0.8355764150619507
1790334776935534000,2.3465341796875,13.093889236450195,-1.5610195398330688,1.3838485479354858
1790334776951988000,2.362988037109375,12.114660263061523,-1.5921441316604614,1.113303780555725
1790334776968473300,2.379473388671875,11.975796699523926,-1.9177556037902832,0.9792284965515137
1790334776984924700,2.395924560546875,10.83855152130127,-1.7166426181793213,1.5107412338256836
1790334777001371100,2.41237109375,11.429919242858887,-0.8690952062606812,2.9975404739379883
1790334777017843500,2.428843505859375,13.053187370300293,-1.0319008827209473,1.9057846069335938
1790334777034288600,2.44528857421875,12.773066520690918,-1.8794482946395874,0.42616790533065796
1790334777050780400,2.461780517578125,10.805032730102539,-2.4372973442077637,-0.6775590777397156
1790334777067198700,2.47819873046875,9.033323287963867,-2.0015525817871094,-1.0606313943862915
1790334777083665000,2.494664794921875,7.4316020011901855,-1.0582371950149536,-0.8212111592292786
1790334777100142600,2.511142578125,6.521805286407471,-0.5315127968788147,0.3064578175544739
1790334777116617700,2.52761767578125,8.099584579467773,-0.6105214357376099,1.1228805780410767
1790334777133037000,2.544037109375,9.253589630126953,-1.05105459690094,0.7876923680305481
1790334777149375500,2.56037548828125,10.711658477783203,-2.075772762298584,0.8331822156906128
1790334777165725200,2.57672509765625,9.502586364746094,-0.608127236366272,2.169146776199341
1790334777182203600,2.59320361328125,8.621520042419434,-1.2737152576446533,1.216254472732544
1790334777198673400,2.60967333984375,8.753201484680176,-2.4660277366638184,0.7924807667732239
1790334777215153700,2.626153564453125,8.904036521911621,-2.5450363159179688,2.537853717803955
1790334777231638000,2.642637939453125,10.812214851379395,-2.5689783096313477,3.3518824577331543
1790334777248115000,2.659114990234375,11.353304862976074,-2.6144683361053467,3.397372245788574
1790334777264584400,2.67558447265625,11.815385818481445,-2.985569477081299,2.846705913543701
1790334777281048000,2.692048095703125,11.923124313354492,-3.6104562282562256,2.3343467712402344
1790334777297547500,2.708547607421875,10.194510459899902,-4.565742492675781,1.920149803161621
1790334777314033400,2.725033447265625,9.622296333312988,-4.455609321594238,1.968033790588379
1790334777330505700,2.741505615234375,10.089165687561035,-3.466804027557373,1.625662922859192
1790334777346980900,2.75798095703125,10.019734382629395,-3.227383852005005,1.4915876388549805
1790334777363437600,2.7744375,10.192116737365723,-3.181894063949585,2.205059766769409
1790334777379888000,2.79088818359375,9.840168952941895,-3.026270866394043,1.98958158493042
1790334777396337700,2.807337646484375,10.139444351196289,-2.956839084625244,1.6687586307525635
1790334777412826000,2.823826171875,10.81460952758789,-3.332728862762451,1.0630255937576294
1790334777429290000,2.8402900390625,10.74996566772461,-3.3423056602478027,0.828393816947937
1790334777445755100,2.856755126953125,10.532093048095703,-3.043030261993408,1.4053963422775269
1790334777462197500,2.873197509765625,10.697293281555176,-2.7485435009002686,2.229001760482788
1790334777478640000,2.88964013671875,10.400412559509277,-2.6647465229034424,2.032677173614502
1790334777495113000,2.906113037109375,9.964667320251465,-2.8850131034851074,1.5634137392044067
1790334777511567400,2.9225673828125,9.730035781860352,-3.0334534645080566,1.1492167711257935
1790334777528022500,2.9390224609375,10.237606048583984,-3.021482467651367,1.3096283674240112
1790334777544486700,2.955486572265625,11.35809326171875,-2.8347349166870117,1.577778935432434
1790334777560941300,2.97194140625,11.777078628540039,-2.9065608978271484,1.8986018896102905
1790334777577414400,2.988414306640625,10.735600471496582,-2.7437551021575928,1.9847931861877441
1790334777593886200,3.00488623046875,10.127472877502441,-2.4684219360351562,1.7884687185287476
1790334777610335700,3.021335693359375,9.533711433410645,-2.3343467712402344,1.5921441316604614
1790334777626779100,3.037779052734375,10.225635528564453,-2.0901381969451904,1.4197616577148438
1790334777643239200,3.0542392578125,9.998186111450195,-2.0183119773864746,1.5825673341751099
1790334777659720200,3.07072021484375,10.110713958740234,-1.290474772453308,1.9560627937316895
1790334777676182800,3.087182861328125,9.445125579833984,-2.1739351749420166,1.161187767982483
1790334777692641000,3.10364111328125,8.738836288452148,-1.8148049116134644,1.400607943534851
1790334777709114000,3.120114013671875,8.157045364379883,-1.292868971824646,1.3958195447921753
1790334777725587700,3.136587646484375,8.17380428314209,-0.9241618514060974,0.7781155705451965
1790334777742059000,3.15305908203125,8.128314971923828,-0.7015010714530945,0.8810662031173706
1790334777758556400,3.169556396484375,8.109161376953125,-0.849941611289978,1.3527239561080933
1790334777775019000,3.18601904296875,8.355764389038086,-0.849941611289978,1.6639702320098877
1790334777791517000,3.202516845703125,8.650250434875488,-0.790086567401886,2.1763293743133545
1790334777808055800,3.219055908203125,9.004592895507812,-0.9552865028381348,2.5330653190612793
1790334777824510200,3.23551025390625,10.192116737365723,-0.20350714027881622,3.4811692237854004
1790334777840958200,3.251958251953125,10.285490036010742,-1.2689268589019775,3.44765043258667
1790334777857408500,3.268408447265625,10.426748275756836,-1.9752163887023926,3.3016040325164795
1790334777873882600,3.284882568359375,10.089165687561035,-2.054224967956543,3.641580820083618
1790334777890336800,3.301336669921875,10.11789608001709,-1.8124107122421265,3.5673606395721436
1790334777906792400,3.31779248046875,9.603142738342285,-1.45806884765625,3.339911460876465
1790334777923237600,3.334237548828125,9.545681953430176,-1.5083470344543457,3.1699230670928955
1790334777939696000,3.350696044921875,10.864887237548828,-1.824381709098816,2.1308395862579346
1790334777956166100,3.367166259765625,10.050858497619629,-1.6328455209732056,2.070984363555908
1790334777972639700,3.3836396484375,9.490615844726562,-1.2282254695892334,2.027888774871826
1790334777989089500,3.400089599609375,9.038111686706543,-1.0271124839782715,2.0470423698425293
1790334778005537500,3.41653759765625,8.688557624816895,-0.8882488012313843,2.070984363555908
1790334778021996500,3.43299658203125,8.51138687133789,-0.6871358752250671,1.9105730056762695
1790334778038435000,3.44943505859375,8.635885238647461,-0.5674257874488831,1.8483237028121948
1790334778054771000,3.46577099609375,8.832210540771484,-0.47165772318840027,1.8914192914962769
1790334778071237400,3.4822373046875,9.342175483703613,-0.4165911078453064,1.6663644313812256
1790334778087704600,3.49870458984375,8.949525833129883,-0.3663128614425659,1.50355863571167
1790334778104153600,3.515153564453125,8.312667846679688,-0.22026655077934265,1.2258312702178955
1790334778120640500,3.531640625,7.225700855255127,0.12449848651885986,0.6105214357376099
1790334778137096700,3.5480966796875,7.218518257141113,0.38546648621559143,0.9911994934082031
1790334778153560600,3.564560546875,8.180987358093262,0.5195417404174805,1.0558429956436157
1790334778170026000,3.58102587890625,8.918401718139648,0.44771572947502136,1.2689268589019775
1790334778186489300,3.5974892578125,9.102754592895508,-0.586579442024231,2.346317768096924
1790334778202966800,3.613966796875,9.849745750427246,-0.7182605266571045,2.027888774871826
1790334778219415300,3.630415283203125,9.734824180603027,0.17717093229293823,1.7764976024627686
1790334778235883800,3.6468837890625,8.968679428100586,0.44532153010368347,1.7693150043487549
1790334778252341200,3.66334130859375,9.14585018157959,-0.8978256583213806,3.184288263320923
1790334778268795600,3.679795654296875,9.3828763961792,-2.0470423698425293,3.339911460876465
1790334778285286100,3.6962861328125,10.366893768310547,-2.43011474609375,1.3694833517074585
1790334778301736400,3.712736328125,10.977415084838867,-2.27209734916687,0.7230489253997803
1790334778318206700,3.729206787109375,10.90798282623291,-2.1140801906585693,0.8523358106613159
1790334778334707500,3.74570751953125,11.291055679321289,-1.3407529592514038,0.8427590131759644
1790334778351157500,3.762157470703125,10.805032730102539,-1.0271124839782715,1.0031704902648926
1790334778367600000,3.77860009765625,10.642226219177246,-1.8555063009262085,0.7565677165985107
1790334778384043300,3.795043212890625,10.682928085327148,-2.6240451335906982,0.5961562395095825
1790334778400530200,3.8115302734375,11.69806957244873,-3.179499864578247,0.090979665517807
1790334778416995000,3.8279951171875,11.013327598571777,-3.31118106842041,-0.1149216815829277
1790334778433455000,3.844455078125,9.818621635437012,-2.5258827209472656,-0.090979665517807
1790334778449900500,3.860900634765625,9.720458984375,-2.2361843585968018,0.6248866319656372
1790334778466342100,3.877342041015625,10.649409294128418,-2.7006595134735107,0.3998316824436188
1790334778482812700,3.893812744140625,11.049241065979004,-2.9975404739379883,0.19632454216480255
1790334778499277000,3.910277099609375,9.8784761428833,-2.942473888397217,0.4596867263317108
1790334778515719200,3.92671923828125,8.695740699768066,-2.612074136734009,0.6584054827690125
1790334778532215600,3.943215576171875,8.092401504516602,-2.6408045291900635,0.48602294921875
1790334778548693500,3.959693603515625,7.948749542236328,-2.58813214302063,0.16998831927776337
1790334778565168400,3.97616845703125,7.898471355438232,-2.7006595134735107,-0.43335050344467163
1790334778581644500,3.99264453125,7.9631147384643555,-2.9951462745666504,-0.43095630407333374
1790334778598088700,4.009088623046875,7.9415669441223145,-2.935291290283203,-0.16759411990642548
1790334778614568700,4.025568603515625,7.757213592529297,-2.631227731704712,0.10534487664699554
1790334778631035000,4.042034912109375,8.667010307312012,-2.3726539611816406,-0.26575639843940735
1790334778647490800,4.05849072265625,9.718064308166504,-2.978386878967285,-0.7852981686592102
1790334778663935200,4.074935302734375,10.225635528564453,-2.8155810832977295,-1.0127472877502441
1790334778680400100,4.091400146484375,-9.208099365234375,-7.386112213134766,-2.5498247146606445
1790334778696868400,4.107868408203125,2.47560453414917,-6.3518171310424805,-0.751779317855835
1790334778713341200,4.124341064453125,3.6391866207122803,-17.049110412597656,-2.5761611461639404
1790334778729788200,4.1407880859375,15.418659210205078,-9.677363395690918,-6.210559368133545
1790334778746255400,4.15725537109375,10.053253173828125,-3.9025487899780273,-8.932766914367676
1790334778762631200,4.173631103515625,13.843274116516113,-0.17956513166427612,-3.7828385829925537
1790334778779074600,4.190074462890625,5.4013190269470215,-5.827486991882324,2.8419175148010254
1790334778795533800,4.206533935546875,11.532869338989258,-5.614402770996094,2.410961151123047
1790334778811976700,4.222976806640625,10.673351287841797,-5.305551052093506,0.090979665517807
1790334778828423200,4.239423095703125,4.69024133682251,-2.920926094055176,-0.090979665517807
1790334778844866300,4.2558662109375,8.090007781982422,-1.7741034030914307,-1.556231141090393
1790334778861330000,4.272329833984375,10.986991882324219,-2.346317768096924,-1.599326729774475
1790334778877772000,4.28877197265625,8.159439086914062,-3.93367338180542,-1.6160861253738403
1790334778894213600,4.305213623046875,6.540958881378174,-4.527435302734375,-0.09576806426048279
1790334778910656800,4.32165673828125,9.66299819946289,-3.3518824577331543,-0.1843535304069519
1790334778927110100,4.338110107421875,10.06043529510498,-2.9975404739379883,-2.1068975925445557
1790334778943555000,4.35455517578125,10.20887565612793,-3.6176388263702393,-0.1412578970193863
1790334778960002600,4.37100244140625,9.655815124511719,-4.503493309020996,-0.6416460275650024
1790334778976450300,4.3874501953125,10.651803016662598,-3.7900211811065674,0.08619125932455063
1790334778992905000,4.403905029296875,8.978256225585938,-2.9664158821105957,0.26336219906806946
1790334779009372200,4.4203720703125,8.4108304977417,-2.96162748336792,-0.38067805767059326
1790334779025821400,4.436821533203125,7.560888767242432,-1.0319008827209473,-0.2944868206977844
1790334779042279000,4.45327880859375,9.045293807983398,0.2537853717803955,-1.3096283674240112
1790334779058722800,4.469722900390625,10.163386344909668,-0.667982280254364,-0.8523358106613159
1790334779075105300,4.486105224609375,11.006145477294922,-0.21787235140800476,-1.9560627937316895
1790334779091549400,4.502549560546875,13.005303382873535,0.023942016065120697,-0.040701430290937424
1790334779107962400,4.51896240234375,10.584765434265137,-1.721431016921997,-1.039083480834961
1790334779124407800,4.53540771484375,9.593565940856934,-0.9289502501487732,-0.3974374830722809
1790334779140850700,4.5518505859375,9.643844604492188,-0.9576807022094727,-0.8044517636299133
1790334779157291800,4.568291748046875,8.585607528686523,-1.216254472732544,-1.922544002532959
1790334779173741600,4.584741455078125,8.889671325683594,-1.5490485429763794,-2.0901381969451904
1790334779190181600,4.601181640625,9.478644371032715,-2.2026655673980713,-1.3407529592514038
1790334779206621400,4.617621337890625,9.533711433410645,-2.4851813316345215,-1.0797849893569946
1790334779223060200,4.634060302734375,9.744400978088379,-2.7748796939849854,-1.070208191871643
1790334779239499800,4.650499755859375,10.333374977111816,-2.1499931812286377,0.20350714027881622
1790334779255956000,4.6669560546875,7.620744228363037,-2.846705913543701,-0.1867477297782898
1790334779272394200,4.683394287109375,6.404489517211914,-2.3127987384796143,-0.5171475410461426
1790334779288845000,4.699844970703125,8.81784439086914,-2.0254945755004883,-0.7230489253997803
1790334779305286100,4.7162861328125,8.882488250732422,-2.0374655723571777,-2.3104045391082764
1790334779321726000,4.732725830078125,11.216835021972656,-1.8148049116134644,-1.6519991159439087
1790334779338166000,4.749166015625,11.039664268493652,-2.918531894683838,-2.33913516998291
1790334779354639600,4.7656396484375,10.45547866821289,-1.6208745241165161,-2.3080103397369385
1790334779371083000,4.7820830078125,9.41400146484375,-0.23702596127986908,-1.3048399686813354
1790334779387527000,4.79852685546875,8.473079681396484,-2.5091233253479004,-0.4381389021873474
1790334779403968000,4.814968017578125,7.33583402633667,-4.323928356170654,-1.9345149993896484
1790334779420421600,4.831421630859375,7.29034423828125,-4.273650169372559,-3.179499864578247
1790334779436864500,4.847864501953125,8.719682693481445,-3.026270866394043,-2.3104045391082764
1790334779453309400,4.864309326171875,6.572083473205566,-4.173093795776367,0.1149216815829277
1790334779469751800,4.880751708984375,9.442731857299805,-5.188235282897949,0.31124621629714966
1790334779486194400,4.8971943359375,10.338163375854492,-5.523423194885254,-0.26336219906806946
1790334779502646000,4.91364599609375,10.709263801574707,-5.7772088050842285,-1.2521674633026123
1790334779519086000,4.930086181640625,11.437101364135742,-7.462726593017578,-1.6950948238372803
1790334779535538400,4.946538330078125,8.31985092163086,-6.596025466918945,-2.0590133666992188
1790334779551979000,4.96297900390625,4.314351558685303,-3.1866824626922607,-2.1475989818573
1790334779568421400,4.97942138671875,6.531382083892822,-2.298433542251587,-2.647987127304077
1790334779584863500,4.995863525390625,5.638344764709473,-2.387019157409668,-0.545877993106842
1790334779601328600,5.01232861328125,5.6910176277160645,-2.2864625453948975,-0.2825157940387726
1790334779617773800,5.02877392578125,13.374011039733887,-4.043806552886963,-1.9081788063049316
1790334779634219000,5.045218994140625,16.807296752929688,-5.837063789367676,-5.082890033721924
1790334779650605000,5.06160498046875,11.889605522155762,-2.9927520751953125,-4.240131378173828
1790334779667073300,5.0780732421875,28.088773727416992,-0.9744400978088379,12.258312225341797
1790334779683444700,5.09444482421875,2.027888774871826,-2.4827871322631836,-2.801215887069702
1790334779699889200,5.11088916015625,19.81441307067871,-2.03507137298584,4.414907932281494
1790334779716333600,5.12733349609375,5.789179801940918,-1.1276689767837524,0.9888052940368652
1790334779732870700,5.14387060546875,6.861782073974609,-0.5578489899635315,1.8986018896102905
1790334779749219600,5.160219482421875,1.9488801956176758,-5.726930618286133,-4.8937482833862305
1790334779765661400,5.176661376953125,-0.2322375625371933,-7.785943984985352,-0.1628057211637497
1790334779782123300,5.193123291015625,-1.6519991159439087,-6.933608055114746,-4.055777549743652
1790334779798551600,5.209551513671875,1.3718775510787964,-4.388571739196777,-0.05027823522686958
1790334779815000000,5.226,7.316680431365967,-5.063736438751221,-1.8986018896102905
1790334779831446000,5.242446044921875,4.8051629066467285,-4.345476150512695,-0.7757213711738586
1790334779847908900,5.258908935546875,4.326322555541992,-4.280832767486572,3.861847400665283
1790334779864362200,5.2753623046875,7.022193431854248,-5.2480902671813965,1.9584569931030273
1790334779880807000,5.291806884765625,7.90086555480957,-3.818751811981201,3.1196448802948
1790334779897252900,5.3082529296875,7.936778545379639,-3.0526070594787598,3.4524388313293457
1790334779913717800,5.3247177734375,8.628703117370605,-5.166687488555908,1.3192051649093628
1790334779930160000,5.34116015625,4.565742492675781,-8.676587104797363,-6.007051944732666
1790334779946602200,5.357602294921875,6.110002517700195,-7.8529815673828125,0.31124621629714966
1790334779963086600,5.374086669921875,2.190694570541382,-15.265430450439453,-4.168305397033691
1790334779979526400,5.3905263671875,16.728286743164062,-13.836091995239258,2.7293899059295654
1790334779995968000,5.406968017578125,-25.246856689453125,-32.48213577270508,-10.362105369567871
1790334780012373000,5.423373046875,-6.449979305267334,-10.436325073242188,-2.3965959548950195
1790334780028819700,5.43981982421875,4.853046894073486,-8.956708908081055,-1.5203180313110352
1790334780045265400,5.456265380859375,3.8379054069519043,-9.418789863586426,-3.2154128551483154
1790334780061670700,5.472670654296875,3.2968156337738037,-8.487444877624512,-1.0989385843276978
1790334780078116600,5.48911669921875,4.632780075073242,-8.504204750061035,-1.1779472827911377
1790334780094464500,5.505464599609375,3.0095114707946777,-10.41956615447998,-0.36152446269989014
1790334780110873900,5.521873779296875,2.935291290283203,-11.233593940734863,1.1348515748977661
1790334780127352600,5.5383525390625,4.264073371887207,-10.237606048583984,0.2537853717803955
1790334780143851500,5.5548515625,6.464344501495361,-9.600749015808105,-1.8483237028121948
1790334780160323600,5.571323486328125,-0.20111294090747833,-9.313444137573242,-0.35673606395721436
1790334780176735200,5.5877353515625,0.6512228846549988,-5.236119270324707,-4.886565685272217
1790334780193113900,5.60411376953125,2.3343467712402344,-9.150638580322266,1.235408067703247
1790334780209567000,5.62056689453125,7.4100542068481445,-11.93748950958252,0.07422025501728058
1790334780226012400,5.637012451171875,6.071695327758789,-11.69806957244873,0.3902548849582672
1790334780242454500,5.65345458984375,3.095702886581421,-9.5408935546875,1.1540051698684692
1790334780258896600,5.669896728515625,3.1316158771514893,-10.41956615447998,0.5267243981361389
1790334780275364900,5.68636474609375,4.060565948486328,-9.763554573059082,-0.29209262132644653
1790334780291842800,5.7028427734375,5.52821159362793,-9.81143856048584,-0.3519476354122162
1790334780308332500,5.71933251953125,1.2282254695892334,-10.237606048583984,-0.6129156351089478
1790334780324824300,5.73582421875,5.307945251464844,-8.975862503051758,0.9050082564353943
1790334780341276700,5.752276611328125,4.857835292816162,-9.622296333312988,-1.278503656387329
1790334780357737000,5.768737060546875,1.316810965538025,-6.452373504638672,-0.7350199222564697
1790334780374185000,5.78518505859375,1.3503297567367554,-7.843404769897461,-1.0534487962722778
1790334780390634000,5.801634033203125,6.232107162475586,-9.287108421325684,-2.161964178085327
1790334780407110400,5.8181103515625,3.248931646347046,-9.181763648986816,-0.5602431893348694
1790334780423557600,5.8345576171875,2.980781078338623,-8.98543930053711,-2.078166961669922
1790334780440016100,5.85101611328125,5.1595048904418945,-7.175422668457031,-1.6903064250946045
1790334780456467200,5.86746728515625,3.799597978591919,-7.661445617675781,-1.5610195398330688
1790334780472914400,5.88391455078125,4.802768707275391,-7.4555439949035645,0.7996633648872375
1790334780489371400,5.900371337890625,6.629544734954834,-7.51779317855835,-1.0582371950149536
1790334780505814500,5.916814453125,4.994304656982422,-7.960720539093018,-3.845088005065918
1790334780522287600,5.93328759765625,2.4205379486083984,-11.60708999633789,0.22026655077934265
1790334780538732000,5.94973193359375,1.5059528350830078,-10.8720703125,-0.6153098344802856
1790334780555176000,5.966176025390625,0.8188169598579407,-11.439496040344238,5.260061264038086
1790334780571632600,5.982632568359375,4.343081951141357,-9.148244857788086,-0.2346317619085312
1790334780588081400,5.999081298828125,6.6127848625183105,-10.259154319763184,-1.601720929145813
1790334780604533200,6.015533203125,1.1827356815338135,-9.318233489990234,-1.158793568611145
1790334780620994000,6.031994140625,2.3056161403656006,-8.573636054992676,-1.5849615335464478
1790334780637433900,6.048433837890625,5.396530628204346,-12.959814071655273,-2.3247697353363037
1790334780653900000,6.064900146484375,3.6990416049957275,-10.017339706420898,-4.884171485900879
1790334780670342400,6.08134228515625,8.26478385925293,-7.975085735321045,-3.8331170082092285
1790334780686785800,6.097785888671875,15.64610767364502,-6.912060260772705,-6.423643112182617
1790334780703235800,6.11423583984375,5.114014625549316,-7.704541206359863,-8.954314231872559
1790334780719682800,6.130682861328125,4.323928356170654,-9.442731857299805,-2.535459518432617
1790334780736128800,6.147128662109375,4.558559894561768,-6.366182327270508,-4.055777549743652
1790334780752575000,6.163574951171875,2.58813214302063,-8.588001251220703,-1.525106430053711
1790334780769038600,6.18003857421875,3.6774938106536865,-7.965508937835693,-0.8762778043746948
1790334780785485800,6.19648583984375,4.24970817565918,-10.074800491333008,-2.27209734916687
1790334780801932300,6.212932373046875,2.4827871322631836,-9.01895809173584,-0.8834604024887085
1790334780818377500,6.22937744140625,4.568136692047119,-9.938331604003906,-0.8475474119186401
1790334780834685700,6.245685791015625,3.9456443786621094,-8.846575736999512,-1.98958158493042
1790334780851126000,6.2621259765625,2.9328970909118652,-9.59835433959961,-1.623268723487854
1790334780867566000,6.278566162109375,3.8570590019226074,-10.599130630493164,-0.33758243918418884
1790334780884007200,6.295007080078125,5.406107425689697,-9.543288230895996,-2.0039467811584473
1790334780900473600,6.3114736328125,1.501164436340332,-8.980650901794434,-0.6751648783683777
1790334780916918300,6.327918212890625,3.141192674636841,-7.347805023193359,-0.2585737705230713
1790334780933368800,6.344368896484375,4.541800498962402,-10.623072624206543,-1.8171991109848022
1790334780949831000,6.360830810546875,1.50355863571167,-8.65743350982666,-0.9888052940368652
1790334780966301700,6.3773017578125,4.76924991607666,-8.17380428314209,-2.0183119773864746
1790334780982780000,6.39377978515625,3.0861260890960693,-8.772355079650879,-1.6663644313812256
1790334780999239000,6.410239013671875,3.3303346633911133,-9.677363395690918,-1.7477672100067139
1790334781015731200,6.426731201171875,3.909731388092041,-9.682151794433594,-1.5466543436050415
1790334781032204300,6.443204345703125,3.598485231399536,-9.995792388916016,-1.0199298858642578
1790334781048707800,6.459707763671875,1.968033790588379,-8.44195556640625,0.3471592366695404
1790334781065226200,6.476226318359375,5.07570743560791,-9.53849983215332,-1.4460978507995605
1790334781081684000,6.49268408203125,3.3686418533325195,-9.136273384094238,0.16998831927776337
1790334781098170600,6.509170654296875,3.203441858291626,-9.490615844726562,-1.3024457693099976
1790334781114631000,6.525630859375,6.754043102264404,-9.923966407775879,-2.6455929279327393
1790334781131134200,6.54213427734375,2.9305028915405273,-10.125079154968262,-1.8555063009262085
1790334781147617500,6.558617431640625,3.251325845718384,-8.209717750549316,-0.9816226959228516
1790334781164077800,6.575077880859375,4.572925090789795,-10.290278434753418,-1.8339585065841675
1790334781180551200,6.59155126953125,2.497152328491211,-8.279149055480957,-0.7326257228851318
1790334781197021000,6.60802099609375,4.1611223220825195,-8.686163902282715,-0.023942016065120697
1790334781213468200,6.62446826171875,4.836287498474121,-9.26795482635498,-1.534683346748352
1790334781229923300,6.64092333984375,3.3686418533325195,-8.932766914367676,-0.3663128614425659
1790334781246367000,6.657366943359375,4.855441093444824,-9.464279174804688,-1.4891934394836426
1790334781262834700,6.673834716796875,5.489904403686523,-8.058882713317871,-2.557007312774658
1790334781279277300,6.69027734375,3.2154128551483154,-7.206547260284424,-1.314416766166687
1790334781295719000,6.706718994140625,4.175487995147705,-8.793902397155762,-0.6799532771110535
1790334781312175000,6.723175048828125,2.851494312286377,-9.677363395690918,-0.8427590131759644
1790334781328618500,6.739618408203125,18.368314743041992,-8.245630264282227,1.1348515748977661
1790334781345074400,6.756074462890625,8.619126319885254,-7.91283655166626,-1.580173134803772
1790334781361518000,6.77251806640625,0.7733271718025208,-7.757213592529297,-1.5442601442337036
1790334781377832000,6.78883203125,4.999093055725098,-7.527369976043701,-2.207453966140747
1790334781394300400,6.805300537109375,5.453991413116455,-8.44195556640625,-1.1899182796478271
1790334781410743600,6.82174365234375,1.8315643072128296,-7.168240070343018,-1.3048399686813354
1790334781427198200,6.8381982421875,9.224859237670898,-7.422025203704834,-1.9105730056762695
1790334781443647000,6.85464697265625,9.011775016784668,-10.752359390258789,-0.7805097699165344
1790334781460091100,6.871091064453125,8.497021675109863,-9.160215377807617,-0.811634361743927
1790334781476546800,6.887546875,3.397372245788574,-8.154650688171387,-1.0965443849563599
1790334781492989400,6.903989501953125,-11.410765647888184,-13.582305908203125,-6.62236213684082
1790334781509450500,6.920450439453125,-1.3551181554794312,-15.253458976745605,-1.886630892753601
1790334781525896700,6.936896728515625,3.404554843902588,-7.422025203704834,-0.507570743560791
1790334781542342400,6.95334228515625,2.604891538619995,-9.44991397857666,-0.1388636976480484
1790334781558802400,6.969802490234375,4.165910720825195,-9.47146224975586,-0.646434485912323
1790334781575248000,6.986247802734375,8.003816604614258,-9.114726066589355,-2.10210919380188
1790334781591707600,7.002707763671875,3.7253777980804443,-8.001421928405762,-1.173158884048462
1790334781608156400,7.019156494140625,3.045424461364746,-10.759542465209961,-1.3000515699386597
1790334781624603400,7.035603271484375,5.2672438621521,-9.828198432922363,-1.2066776752471924
1790334781641088500,7.052088623046875,3.799597978591919,-8.944737434387207,-1.5322890281677246
1790334781657549300,7.06854931640625,0.9145850539207458,-7.872135162353516,-0.22505496442317963
1790334781673997300,7.084997314453125,3.751713991165161,-7.433996200561523,-1.2330138683319092
1790334781690446600,7.101446533203125,1.920149803161621,-7.223306655883789,-1.5634137392044067
1790334781706892500,7.117892578125,3.0597896575927734,-9.945513725280762,-1.2330138683319092
1790334781723338800,7.1343388671875,0.8259995579719543,-6.617573261260986,-3.0621838569641113
1790334781739782700,7.15078271484375,4.060565948486328,-10.235212326049805,-2.118868589401245
1790334781756239000,7.167239013671875,5.568912982940674,-8.190564155578613,-0.4429273009300232
1790334781772681500,7.183681396484375,2.6575639247894287,-8.834604263305664,-2.516305923461914
1790334781789179000,7.200178955078125,4.134786128997803,-8.880094528198242,-0.1628057211637497
1790334781805660700,7.21666064453125,2.3965959548950195,-7.982268333435059,-0.33518823981285095
1790334781822105000,7.23310498046875,4.7836151123046875,-7.893682956695557,-2.255337953567505
1790334781838594000,7.249593994140625,3.600879430770874,-8.497021675109863,0.2059013396501541
1790334781855035100,7.26603515625,3.84269380569458,-9.10993766784668,-1.048660397529602
1790334781871480000,7.28247998046875,6.27280855178833,-9.691728591918945,-1.9129672050476074
1790334781887997000,7.298996826171875,3.7876269817352295,-10.345345497131348,-1.1875240802764893
1790334781904456700,7.315456787109375,4.745307922363281,-8.537723541259766,-1.173158884048462
1790334781920903200,7.331903076171875,5.932831764221191,-10.101137161254883,-1.194706678390503
1790334781937353700,7.348353759765625,3.1196448802948,-8.87291145324707,-0.7422025203704834
1790334781953797000,7.364797119140625,3.3016040325164795,-8.08043098449707,-0.6943184733390808
1790334781970240800,7.38124072265625,2.647987127304077,-8.463502883911133,-1.6184803247451782
1790334781986683600,7.39768359375,-1.6304513216018677,-8.042123794555664,-5.1810526847839355
1790334782003143200,7.41414306640625,0.3232172429561615,-8.38449478149414,0.1173158809542656
1790334782019592200,7.43059228515625,7.879317760467529,-9.888052940368652,-1.9488801956176758
1790334782036042800,7.447042724609375,1.778891921043396,-9.653421401977539,-0.8259995579719543
1790334782052491800,7.46349169921875,1.6759412288665771,-6.435614109039307,-0.7805097699165344
1790334782068954400,7.479954345703125,6.426037311553955,-9.63187313079834,-1.8914192914962769
1790334782085405000,7.496405029296875,3.2154128551483154,-9.17936897277832,-0.7948749661445618
1790334782101855700,7.512855712890625,9.50498104095459,-9.387664794921875,-3.2776620388031006
1790334782118305300,7.52930517578125,8.157045364379883,-9.08838939666748,-1.9919757843017578
1790334782134765300,7.545765380859375,2.535459518432617,-8.746018409729004,0.1173158809542656
1790334782151210000,7.5622099609375,2.293645143508911,-7.994239330291748,-1.6065093278884888
1790334782167681500,7.578681640625,5.623979568481445,-10.462661743164062,-1.3407529592514038
1790334782184134400,7.595134521484375,2.6647465229034424,-8.83939266204834,-1.1109095811843872
1790334782200611800,7.61161181640625,2.9759926795959473,-7.359776020050049,-0.22744916379451752
1790334782217102300,7.628102294921875,3.7828385829925537,-8.746018409729004,-1.5203180313110352
1790334782233554700,7.6445546875,1.115697979927063,-8.1139497756958,-0.5506663918495178
1790334782250022100,7.661022216796875,3.7852327823638916,-7.8098859786987305,-1.8291701078414917
1790334782266469400,7.677469482421875,4.663905143737793,-8.793902397155762,-1.4891934394836426
1790334782282941400,7.69394140625,3.1292216777801514,-10.038887977600098,-1.158793568611145
1790334782299430700,7.7104306640625,3.8283286094665527,-9.730035781860352,-1.3455413579940796
1790334782315899000,7.72689892578125,4.668693542480469,-10.20648193359375,-1.1803414821624756
1790334782332397000,7.74339697265625,2.3582887649536133,-8.303091049194336,-0.038307227194309235
1790334782348861400,7.759861328125,3.584120035171509,-7.793126583099365,-0.7445967197418213
1790334782365369600,7.77636962890625,5.054159641265869,-9.349357604980469,-1.7286136150360107
1790334782381837800,7.792837890625,-0.28969839215278625,-8.432378768920898,-1.0869675874710083
1790334782398285300,7.809285400390625,8.712499618530273,-8.793902397155762,-3.047818660736084
1790334782414753500,7.82575341796875,3.93367338180542,-9.464279174804688,-2.056619167327881
1790334782431203300,7.842203369140625,4.467580318450928,-9.485827445983887,-1.843535304069519
1790334782447652600,7.858652587890625,3.07415509223938,-9.730035781860352,-0.28730419278144836
1790334782464103200,7.875103271484375,7.287950038909912,-8.731653213500977,-2.410961151123047
1790334782480554200,7.89155419921875,2.631227731704712,-7.680599212646484,-0.13407529890537262
1790334782497010400,7.908010498046875,4.189853191375732,-7.903259754180908,-2.389413356781006
1790334782513488100,7.924488037109375,2.5234885215759277,-8.451532363891602,-0.16519992053508759
1790334782529960700,7.940960693359375,3.3063924312591553,-8.705317497253418,-1.6974890232086182
1790334782546444500,7.957444580078125,6.009446144104004,-10.44350814819336,-2.6192567348480225
1790334782562893800,7.973893798828125,3.5266590118408203,-9.074024200439453,-2.5953147411346436
1790334782579365600,7.99036572265625,4.1395745277404785,-8.47786808013916,-0.26336219906806946
1790334782595846100,8.00684619140625,3.7038300037384033,-10.02452278137207,-2.652775526046753
1790334782612293400,8.02329345703125,3.114856481552124,-8.899248123168945,-0.2322375625371933
1790334782628746800,8.039746826171875,3.354276657104492,-10.158597946166992,-0.2059013396501541
1790334782645191400,8.05619140625,3.3854012489318848,-10.108319282531738,-1.213860273361206
1790334782661638000,8.072637939453125,4.218583583831787,-8.556877136230469,-0.2346317619085312
1790334782678088400,8.08908837890625,4.888959884643555,-9.114726066589355,-2.5330653190612793
1790334782694532600,8.10553271484375,3.359065055847168,-9.045293807983398,-1.479616641998291
1790334782710980000,8.12197998046875,5.43723201751709,-7.879317760467529,-1.9273324012756348
1790334782727428400,8.138428466796874,4.177882194519043,-7.208941459655762,-1.7094600200653076
1790334782743882000,8.154882080078124,3.5051112174987793,-7.1921820640563965,-3.450044631958008
1790334782760326700,8.17132666015625,5.169081687927246,-7.687781810760498,-1.6615760326385498
1790334782776772600,8.187772705078125,7.793126583099365,-9.136273384094238,-2.3798365592956543
1790334782793219300,8.20421923828125,5.212177276611328,-10.067618370056152,-2.4205379486083984
1790334782809666300,8.220666259765625,7.726089000701904,-9.229647636413574,-2.169146776199341
1790334782826116900,8.237116943359375,10.979808807373047,-10.249577522277832,-5.377377033233643
1790334782842566700,8.253566650390624,-0.8619126081466675,-8.030152320861816,-1.3048399686813354
1790334782859016200,8.27001611328125,4.587290287017822,-8.324639320373535,-1.6711528301239014
1790334782875399700,8.286399658203125,4.642356872558594,-7.800309181213379,-2.0183119773864746
1790334782890885400,8.301885498046875,8.47547435760498,-17.724275588989258,-7.714118003845215
1790334782907341600,8.318341552734376,-0.7350199222564697,-2.494758129119873,-2.4157495498657227
1790334782923797500,8.334797607421875,12.140996932983398,-5.602431774139404,-2.008735179901123
1790334782940249300,8.351249267578124,5.04218864440918,-4.7620673179626465,-1.968033790588379
1790334782956700700,8.36770068359375,10.879252433776855,-4.132391929626465,-7.68538761138916
1790334782973151000,8.38415087890625,6.22731876373291,-8.51138687133789,-0.26336219906806946
1790334782989618700,8.40061865234375,6.2201361656188965,-8.908824920654297,-3.0166940689086914
1790334783006067700,8.417067626953125,5.2672438621521,-8.360552787780762,-3.8762125968933105
1790334783022517500,8.433517578125,-1.9512743949890137,-8.010998725891113,-5.760449409484863
1790334783038966800,8.449966796875,5.57370138168335,-9.35654067993164,-4.034229755401611
1790334783055415800,8.466415771484375,2.492363929748535,-8.580819129943848,-6.19379997253418
1790334783071956500,8.48295654296875,10.24239444732666,-7.580042362213135,-5.978321552276611
1790334783088406500,8.499406494140626,4.766855716705322,-6.981492042541504,-3.627215623855591
1790334783104855000,8.51585498046875,4.733336925506592,-9.615114212036133,-4.271255970001221
1790334783121316400,8.53231640625,0.9672574996948242,-6.672640323638916,-1.9369091987609863
1790334783137725700,8.5487255859375,2.3271639347076416,-7.299921035766602,-3.4739866256713867
1790334783154137300,8.565137451171875,2.118868589401245,-8.437167167663574,-6.426037311553955
1790334783170599200,8.58159912109375,2.7461493015289307,-9.634267807006836,-3.950432777404785
1790334783187038700,8.598038818359376,3.157952070236206,-9.248801231384277,-4.537012100219727
1790334783203481900,8.61448193359375,1.699883222579956,-8.98543930053711,-4.869806289672852
1790334783219926800,8.6309267578125,2.695871114730835,-8.195352554321289,-3.4308910369873047
1790334783236394500,8.64739453125,2.7461493015289307,-7.0557122230529785,-2.7700912952423096
1790334783252837400,8.66383740234375,3.97916316986084,-8.760383605957031,-4.9368438720703125
1790334783269282800,8.68028271484375,1.0869675874710083,-7.750030994415283,-2.985569477081299
1790334783285728500,8.696728515625,0.19153612852096558,-6.445190906524658,-2.4660277366638184
1790334783302171000,8.7131708984375,1.889025092124939,-5.054159641265869,-1.1516109704971313
1790334783318617900,8.729617919921875,2.9664158821105957,-11.346121788024902,-4.197035789489746
1790334783335062300,8.746062255859375,3.24414324760437,-11.252747535705566,-5.17626428604126
1790334783351503600,8.762503662109374,3.4739866256713867,-9.004592895507812,-4.960785865783691
1790334783367951600,8.77895166015625,0.09576806426048279,-6.641515731811523,-2.2361843585968018
1790334783384391700,8.7953916015625,3.1459810733795166,-6.179434776306152,-2.3535003662109375
1790334783400833800,8.811833740234375,-3.5170822143554688,-9.050082206726074,1.0031704902648926
1790334783417142000,8.82814208984375,0.7015010714530945,-7.675810813903809,-2.9041666984558105
1790334783433580300,8.844580322265625,5.3342814445495605,-8.259995460510254,-5.341464042663574
1790334783450019300,8.861019287109375,1.625662922859192,-9.583989143371582,-5.185841083526611
1790334783466461400,8.87746142578125,2.786850690841675,-5.257667064666748,-1.8986018896102905
1790334783482915800,8.893915771484375,2.8107926845550537,-10.022128105163574,-5.284003257751465
1790334783499353600,8.910353515625,4.663905143737793,-6.356605529785156,-3.0358476638793945
1790334783515794200,8.926794189453124,1.1420341730117798,-6.6846113204956055,-2.5234885215759277
1790334783532251600,8.943251708984375,3.1004912853240967,-7.711723804473877,-4.812345504760742
1790334783548697600,8.959697509765626,2.9305028915405273,-8.38449478149414,-3.4356794357299805
1790334783565204700,8.976204833984376,2.341529369354248,-8.671798706054688,-4.292803764343262
1790334783581661000,8.992660888671875,3.794809579849243,-9.437943458557129,-5.571307182312012
1790334783598100500,9.0091005859375,-0.7469909191131592,-8.461109161376953,-4.369418144226074
1790334783614580000,9.025580078125,2.3989901542663574,-7.86734676361084,-3.177105665206909
1790334783631023600,9.042023681640625,2.631227731704712,-9.497797966003418,-5.284003257751465
1790334783647529000,9.058529052734375,0.7206547260284424,-8.142680168151855,-2.9520506858825684
1790334783663992300,9.074992431640625,3.823540210723877,-8.7268648147583,-4.853046894073486
1790334783680436500,9.0914365234375,2.47560453414917,-7.91283655166626,-4.010287761688232
1790334783696901400,9.1079013671875,1.1827356815338135,-9.394847869873047,-4.252102375030518
1790334783713349000,9.12434912109375,2.008735179901123,-9.279925346374512,-4.900930881500244
1790334783729859300,9.140859375,1.4628572463989258,-10.002974510192871,-4.266467571258545
1790334783746300400,9.157300537109375,4.106055736541748,-7.050923824310303,-2.142810583114624
1790334783762743000,9.173742919921875,3.4835634231567383,-7.692570209503174,-4.256890773773193
1790334783779200800,9.19020068359375,2.207453966140747,-9.002198219299316,-3.758896589279175
1790334783795642000,9.20664208984375,-0.4836287498474121,-8.130708694458008,-3.8379054069519043
1790334783812081400,9.223081298828125,3.584120035171509,-10.591948509216309,-5.693411827087402
1790334783828536800,9.239536865234374,2.698265314102173,-8.161833763122559,-4.0749311447143555
1790334783845068800,9.25606884765625,2.1068975925445557,-7.8960771560668945,-3.804386615753174
1790334783861394400,9.27239453125,1.5298948287963867,-9.516951560974121,-4.8482584953308105
1790334783877840600,9.288840576171875,2.808398485183716,-8.154650688171387,-3.181894063949585
1790334783894333700,9.305333740234374,0.9744400978088379,-6.531382083892822,-4.082113742828369
1790334783910784000,9.321783935546875,3.4955344200134277,-9.253589630126953,-5.272032260894775
1790334783927223600,9.3382236328125,3.687070608139038,-10.14902114868164,-4.015076160430908
1790334783943689700,9.354689697265625,3.909731388092041,-9.428366661071777,-4.290409564971924
1790334783960134400,9.371134521484375,1.522712230682373,-10.319009780883789,-4.960785865783691
1790334783976584700,9.387584716796875,4.137180328369141,-7.441178798675537,-2.7964274883270264
1790334783993029400,9.404029296875,0.22744916379451752,-6.004657745361328,-1.9991583824157715
1790334784009517600,9.420517578125,2.099714994430542,-8.559270858764648,-4.829104900360107
1790334784025967400,9.43696728515625,2.52109432220459,-7.797914981842041,-2.892195701599121
1790334784042411500,9.45341162109375,1.53707754611969,-7.819462776184082,-4.891354084014893
1790334784058879000,9.46987890625,2.27209734916687,-10.457873344421387,-5.008669853210449
1790334784075429400,9.486429443359375,2.1739351749420166,-9.940725326538086,-4.206612586975098
1790334784091810800,9.502810791015625,1.5634137392044067,-10.311826705932617,-5.262455463409424
1790334784108289500,9.51928955078125,1.8507179021835327,-10.469843864440918,-5.018246650695801
1790334784124591000,9.535591064453126,4.469974517822266,-7.247248649597168,-2.607285737991333
1790334784141091300,9.55209130859375,2.631227731704712,-6.5912370681762695,-2.43011474609375
1790334784157553700,9.5685537109375,2.6815059185028076,-8.358158111572266,-4.089296340942383
1790334784173996500,9.58499658203125,2.583343744277954,-7.429207801818848,-3.1244332790374756
1790334784190457900,9.601457763671876,0.9409212470054626,-8.525752067565918,-4.881777286529541
1790334784206895600,9.6178955078125,1.0127472877502441,-10.290278434753418,-4.98472785949707
1790334784223358500,9.6343583984375,2.3487119674682617,-9.816226959228516,-5.063736438751221
1790334784239816700,9.650816650390626,1.8148049116134644,-10.02691650390625,-4.920084476470947
1790334784256299500,9.667299560546875,3.1866824626922607,-9.251194953918457,-4.23773717880249
1790334784272745200,9.6837451171875,4.24970817565918,-6.67982292175293,-2.2816741466522217
1790334784289185300,9.700185302734376,2.8371291160583496,-6.366182327270508,-1.889025092124939
1790334784305691600,9.716691650390626,2.829946517944336,-8.401253700256348,-3.8379054069519043
1790334784322148000,9.733148193359375,2.9520506858825684,-7.915230751037598,-3.0765492916107178
1790334784338591500,9.749591552734374,1.821987509727478,-8.315062522888184,-5.219359874725342
1790334784355067400,9.7660673828125,0.4572925269603729,-10.371682167053223,-5.116408824920654
1790334784371511800,9.78251171875,1.7741034030914307,-9.411606788635254,-5.3127336502075195
1790334784387977700,9.798977783203124,1.1276689767837524,-10.244789123535156,-4.888959884643555
1790334784404444000,9.81544384765625,1.0630255937576294,-9.545681953430176,-4.252102375030518
1790334784420890400,9.831890380859376,3.0095114707946777,-5.935225963592529,-3.114856481552124
1790334784437335800,9.848335693359376,2.7557260990142822,-6.296750545501709,-1.8579005002975464
1790334784453781000,9.864781005859374,3.0765492916107178,-7.448361396789551,-3.4165258407592773
1790334784470290200,9.881290283203125,2.346317768096924,-7.062894821166992,-2.4899697303771973
1790334784486751700,9.897751708984375,1.6950948238372803,-8.611943244934082,-5.123591423034668
1790334784503196200,9.914196044921875,0.7948749661445618,-10.556035041809082,-5.480327606201172
1790334784519659800,9.93065966796875,2.1930887699127197,-9.196128845214844,-3.4979286193847656
1790334784536103400,9.947103515625,2.513911724090576,-9.864110946655273,-4.065354347229004
1790334784552611300,9.963611328125,3.2178070545196533,-8.947132110595703,-2.980781078338623
1790334784569053700,9.9800537109375,3.780444383621216,-7.254431247711182,-2.9089550971984863
1790334784585538800,9.996538818359374,3.026270866394043,-6.794744491577148,-2.999934673309326
1790334784602022400,10.0130224609375,3.0526070594787598,-7.812280178070068,-3.624821424484253
1790334784618467000,10.029467041015625,1.5059528350830078,-7.680599212646484,-3.3494882583618164
1790334784634958800,10.045958740234376,2.231395959854126,-10.848128318786621,-5.920860767364502
1790334784651404800,10.06240478515625,3.1004912853240967,-10.948684692382812,-5.403713226318359
1790334784667845000,10.07884521484375,3.7205893993377686,-9.232041358947754,-5.698200225830078
1790334784684325400,10.095325439453125,2.5929205417633057,-9.136273384094238,-4.098873138427734
1790334784700765400,10.111765380859374,3.095702886581421,-7.469909191131592,-3.0142998695373535
1790334784717209900,10.1282099609375,3.004723072052002,-5.580883979797363,-2.626439332962036
1790334784733649000,10.14464892578125,2.497152328491211,-8.039729118347168,-4.094084739685059
1790334784750132000,10.161132080078126,3.7636849880218506,-8.810662269592285,-3.4380736351013184
1790334784766578200,10.177578125,2.7892448902130127,-8.767566680908203,-3.7253777980804443
1790334784783019300,10.194019287109375,0.4165911078453064,-10.884040832519531,-6.028599739074707
1790334784799509800,10.210509765625,2.786850690841675,-10.278307914733887,-4.898536682128906
1790334784815952000,10.226951904296875,3.8738183975219727,-8.20492935180664,-4.843470096588135
1790334784832397600,10.2433974609375,2.1356279850006104,-8.755595207214355,-3.5266590118408203
1790334784848879400,10.25987939453125,3.24414324760437,-7.299921035766602,-3.136404275894165
1790334784865319000,10.27631884765625,3.354276657104492,-6.675034523010254,-1.7334020137786865
1790334784881782500,10.292782470703125,1.37906014919281,-6.845022678375244,-3.3949780464172363
1790334784898275000,10.309275146484374,3.2297780513763428,-8.540117263793945,-3.6559460163116455
1790334784914766300,10.325766357421875,2.7126305103302,-8.793902397155762,-3.4404678344726562
1790334784931232500,10.342232421875,-0.3016694188117981,-10.986991882324219,-5.75326681137085
1790334784947680300,10.35868017578125,1.2689268589019775,-10.893617630004883,-5.499481201171875
1790334784964187600,10.375187744140625,2.894589900970459,-8.343792915344238,-5.2049946784973145
1790334784980649000,10.39164892578125,1.5490485429763794,-8.956708908081055,-4.189853191375732
1790334784997141500,10.4081416015625,3.114856481552124,-7.8098859786987305,-3.5649664402008057
1790334785013607000,10.42460693359375,3.6607344150543213,-6.521805286407471,-2.207453966140747
1790334785030051600,10.441051513671875,3.380612850189209,-6.7923502922058105,-2.343923568725586
1790334785046518800,10.457518798828126,3.847482204437256,-8.293514251708984,-3.734954595565796
1790334785062956800,10.473956787109374,2.829946517944336,-7.769184589385986,-2.8107926845550537
1790334785079408400,10.490408447265626,-0.0694318488240242,-9.804255485534668,-5.370194435119629
1790334785095751400,10.50675146484375,2.075772762298584,-11.528080940246582,-6.095637321472168
1790334785112194600,10.523194580078124,1.9943699836730957,-9.84256362915039,-3.9025487899780273
1790334785128707800,10.539707763671874,1.9776105880737305,-9.830592155456543,-5.125985622406006
1790334785145176600,10.556176513671875,2.8658595085144043,-9.26795482635498,-4.199429988861084
1790334785161623300,10.572623291015624,3.8331170082092285,-7.340622425079346,-3.6128504276275635
1790334785178106600,10.589106689453125,4.0294413566589355,-6.196194171905518,-1.4987702369689941
1790334785194549200,10.60554931640625,3.7445313930511475,-7.773972988128662,-3.7900211811065674
1790334785211058400,10.622058349609375,3.205836057662964,-7.132327079772949,-2.669534921646118
1790334785227499300,10.638499267578124,2.4803929328918457,-7.177816867828369,-3.818751811981201
1790334785243984000,10.65498388671875,0.38307225704193115,-10.869675636291504,-7.766790390014648
1790334785260429300,10.67142919921875,0.6416460275650024,-10.105925559997559,-2.8131868839263916
1790334785276871400,10.687871337890625,2.1930887699127197,-8.434772491455078,-3.2178070545196533
1790334785293365800,10.70436572265625,0.031124621629714966,-11.293449401855469,-5.0876784324646
1790334785309826800,10.720826904296874,2.2385785579681396,-10.771512985229492,-7.450755596160889
1790334785326272500,10.7372724609375,0.9528923034667969,-9.169792175292969,-2.3295583724975586
1790334785342732500,10.753732666015624,3.404554843902588,-6.493074893951416,-3.318363666534424
1790334785359180300,10.77018017578125,2.276885747909546,-7.781155586242676,-2.8658595085144043
1790334785375695400,10.7866953125,3.308786630630493,-6.847416877746582,-3.890577793121338
1790334785392167000,10.8031669921875,1.115697979927063,-11.724405288696289,-4.089296340942383
1790334785408663000,10.8196630859375,-0.8331822156906128,-8.769960403442383,-3.3949780464172363
1790334785425151200,10.836151123046875,2.0614075660705566,-9.734824180603027,-4.077325344085693
1790334785441597400,10.852597412109375,3.201047658920288,-10.314221382141113,-7.943961143493652
1790334785458110200,10.869110107421875,0.9696516990661621,-8.911218643188477,-2.22660756111145
1790334785474576100,10.885576171875,0.9720458984375,-8.767566680908203,-4.23773717880249
1790334785491073800,10.90207373046875,2.8778305053710938,-9.794678688049316,-7.005434036254883
1790334785507541000,10.918541015625,2.6024973392486572,-7.90086555480957,-0.9241618514060974
1790334785523985200,10.934985107421875,2.9951462745666504,-7.390900611877441,-7.139509677886963
1790334785540432000,10.951431884765626,-0.4692635238170624,-8.722076416015625,-0.033518824726343155
1790334785556876500,10.96787646484375,3.5625722408294678,-9.72285270690918,-9.600749015808105
1790334785573320400,10.984320556640625,2.8443117141723633,-9.782708168029785,-3.224989652633667
1790334785589780200,11.0007802734375,5.216965675354004,-7.615955829620361,-7.5968017578125
1790334785606222800,11.017222900390625,-0.6584054827690125,-6.521805286407471,1.0606313943862915
1790334785622672100,11.033672119140626,3.533841609954834,-8.185775756835938,-5.906495571136475
1790334785639122700,11.050122802734375,1.400607943534851,-10.56800651550293,-5.152322292327881
1790334785655569400,11.0665693359375,0.7254431247711182,-9.864110946655273,-4.819528102874756
1790334785672034600,11.08303466796875,1.9847931861877441,-8.645462036132812,-7.592013359069824
1790334785688476400,11.099476318359375,2.8371291160583496,-9.11233139038086,-0.586579442024231
1790334785704926700,11.1159267578125,3.581725835800171,-8.432378768920898,-4.345476150512695
1790334785721370600,11.13237060546875,3.579331636428833,-6.797138690948486,-6.145915985107422
1790334785737815300,11.148815185546875,-0.35434186458587646,-9.888052940368652,-3.4811692237854004
1790334785754259000,11.165259033203125,3.3016040325164795,-10.78348445892334,-8.233659744262695
1790334785770701000,11.181701171875,4.558559894561768,-8.197746276855469,-4.786009311676025
1790334785787145700,11.198145751953126,2.049436569213867,-5.746084213256836,-0.26096799969673157
1790334785803591200,11.214591064453124,2.293645143508911,-6.708553314208984,-7.402871608734131
1790334785820032500,11.231032470703125,4.987122058868408,-7.247248649597168,-2.9472622871398926
1790334785836479700,11.247479736328126,-0.8427590131759644,-11.176133155822754,-4.039018154144287
1790334785852919300,11.263919189453125,0.47884035110473633,-11.432312965393066,-10.005369186401367
1790334785869363200,11.28036328125,4.841075897216797,-5.9088897705078125,-2.9879636764526367
1790334785885783800,11.29678369140625,1.9177556037902832,-5.382165431976318,-1.6184803247451782
1790334785902239000,11.313239013671875,5.7987565994262695,-6.694188117980957,-2.9305028915405273
1790334785918703000,11.329703125,4.522646903991699,-9.545681953430176,-3.5051112174987793
1790334785935144200,11.346144287109375,-1.6304513216018677,-13.4290771484375,-5.272032260894775
1790334785951648800,11.362648681640625,5.080495834350586,-8.415618896484375,-8.525752067565918
1790334785968088600,11.379088623046876,4.381389141082764,-5.983109951019287,-2.279279947280884
1790334785984526600,11.395526611328124,3.251325845718384,-4.728548526763916,-0.07422025501728058
1790334786000972500,11.41197265625,0.9050082564353943,-8.573636054992676,-5.987898349761963
1790334786017412000,11.428412109375,6.260837554931641,-9.586383819580078,-4.137180328369141
1790334786033863000,11.44486279296875,-3.0550012588500977,-12.155362129211426,-2.7006595134735107
1790334786050306600,11.461306640625,2.8179752826690674,-9.437943458557129,-10.022128105163574
1790334786066642000,11.477641845703126,4.517858505249023,-4.786009311676025,-3.84269380569458
1790334786083112000,11.49411181640625,2.983175277709961,-5.825092792510986,0.7589619159698486
1790334786099446000,11.510446044921874,5.367800235748291,-6.8809356689453125,-1.5418659448623657
1790334786115861800,11.52686181640625,0.5195417404174805,-11.046846389770508,-6.0190229415893555
1790334786132310300,11.543310302734374,2.5953147411346436,-11.91354751586914,-5.367800235748291
1790334786148753700,11.559753662109374,3.512293815612793,-8.69095230102539,-7.613561630249023
1790334786165222400,11.576222412109376,3.8379054069519043,-6.45476770401001,-6.081272125244141
1790334786181663700,11.592663818359375,3.4356794357299805,-4.402936935424805,-0.8834604024887085
1790334786198120700,11.60912060546875,1.0893617868423462,-7.6782050132751465,-2.609679937362671
1790334786214557200,11.62555712890625,7.800309181213379,-8.087613105773926,-2.5522189140319824
1790334786230994700,11.64199462890625,-0.181959331035614,-12.51449203491211,-5.525817394256592
1790334786247449900,11.658449951171875,-0.9169792532920837,-11.604695320129395,-6.701370716094971
1790334786263887400,11.674887451171875,4.529829502105713,-6.962338447570801,-8.683769226074219
1790334786280330200,11.691330322265625,4.1156325340271,-5.985504150390625,-3.6104562282562256
1790334786296766000,11.707765869140625,3.1747114658355713,-5.166687488555908,2.0039467811584473
1790334786313203000,11.724202880859375,2.3271639347076416,-9.41639518737793,-4.910507678985596
1790334786329655600,11.740655517578125,6.914454460144043,-9.390059471130371,-3.155557870864868
1790334786346090500,11.757090576171874,2.6144683361053467,-10.824186325073242,0.45489832758903503
1790334786362532600,11.77353271484375,-0.09816227108240128,-9.758766174316406,-7.9415669441223145
1790334786378979000,11.78997900390625,4.675876140594482,-7.706935405731201,-9.028534889221191
1790334786395419600,11.806419677734375,4.307168960571289,-5.8203043937683105,0.12210428714752197
1790334786411863800,11.82286376953125,3.957615375518799,-5.07570743560791,1.920149803161621
1790334786428299500,11.839299560546875,-1.0271124839782715,-8.35336971282959,-5.9088897705078125
1790334786444756000,11.855755859375,5.5114521980285645,-8.293514251708984,-6.279991149902344
1790334786461193200,11.872193115234374,-0.05985504388809204,-10.237606048583984,0.19871874153614044
1790334786477631700,11.8886318359375,-0.2537853717803955,-10.773907661437988,-6.4595561027526855
1790334786494086000,11.9050859375,4.577713489532471,-7.845798969268799,-8.71489429473877
1790334786510523000,11.92152294921875,5.4875102043151855,-5.856217384338379,-1.3239935636520386
1790334786526963000,11.937962890625,4.177882194519043,-5.128379821777344,1.678335428237915
1790334786543396000,11.95439599609375,-0.8762778043746948,-9.311050415039062,-3.5865142345428467
1790334786559830000,11.970830078125,6.57926607131958,-10.065223693847656,-5.279214859008789
1790334786576281900,11.98728173828125,3.7852327823638916,-12.428300857543945,-1.7717092037200928
1790334786592715800,12.0037158203125,-0.4908113479614258,-9.32302188873291,-5.4252610206604
1790334786609174800,12.0201748046875,4.72376012802124,-7.6111674308776855,-9.959878921508789
1790334786625614600,12.036614501953125,4.137180328369141,-5.69580602645874,-4.041412353515625
1790334786642055000,12.053054931640625,4.422090530395508,-4.903325080871582,-0.6967126727104187
1790334786658502100,12.069502197265624,-0.9409212470054626,-8.061277389526367,-3.797203779220581
1790334786674941400,12.08594140625,5.492298603057861,-8.279149055480957,-2.6431987285614014
1790334786691395800,12.102395751953125,3.8738183975219727,-14.113819122314453,-6.45476770401001
1790334786707832800,12.118832763671875,-1.5442601442337036,-10.347740173339844,-6.943184852600098
1790334786724271600,12.135271728515624,3.0382418632507324,-7.800309181213379,-6.50025749206543
1790334786740707300,12.151707275390624,5.434837818145752,-7.036558628082275,-8.425195693969727
1790334786757144300,12.168144287109374,4.477157115936279,-5.647922039031982,-1.2282254695892334
1790334786773582000,12.18458203125,0.608127236366272,-6.246472358703613,1.4652514457702637
1790334786790020600,12.2010205078125,4.8937482833862305,-7.486668586730957,-0.4357447028160095
1790334786806461400,12.21746142578125,4.5609540939331055,-14.767436027526855,-9.799467086791992
1790334786822913800,12.233913818359374,1.7980455160140991,-11.379640579223633,-5.154716491699219
1790334786839353900,12.250353759765625,1.3024457693099976,-8.738836288452148,-2.4205379486083984
1790334786855788800,12.266788818359375,1.4413094520568848,-7.527369976043701,-10.579977035522461
1790334786872299500,12.283299560546874,6.493074893951416,-5.4444146156311035,-5.801150798797607
1790334786888613000,12.299613037109374,4.865017890930176,-5.652710437774658,1.9177556037902832
1790334786905074200,12.31607421875,3.1938650608062744,-5.822698593139648,3.203441858291626
1790334786921514000,12.332513916015625,3.864241600036621,-14.207192420959473,-9.617507934570312
1790334786937974300,12.348974365234374,4.793191909790039,-8.611943244934082,-7.024587631225586
1790334786954415400,12.365415283203125,3.804386615753174,-12.11705493927002,-1.434126853942871
1790334786970856200,12.381856201171875,-4.611232280731201,-6.703764915466309,-9.435548782348633
1790334786987299600,12.398299560546874,5.6910176277160645,-7.091625213623047,-9.512163162231445
1790334787003740000,12.414739990234375,-0.3926490843296051,-4.417302131652832,-3.3686418533325195
1790334787020184000,12.43118408203125,4.963180065155029,-6.246472358703613,0.7398083209991455
1790334787036626200,12.447626220703125,-0.4596867263317108,-8.9064302444458,-1.338358759880066
1790334787053111600,12.464111572265624,5.279214859008789,-8.887276649475098,-1.9704279899597168
1790334787069572000,12.480572021484376,5.094861030578613,-13.30218505859375,-5.157110691070557
1790334787085954300,12.496954345703125,-0.849941611289978,-9.593565940856934,-6.739677906036377
1790334787102392800,12.513392822265626,0.7134721279144287,-8.17141056060791,-1.53707754611969
1790334787118801000,12.52980078125,-0.22744916379451752,-5.69580602645874,-9.191340446472168
1790334787135239700,12.54623974609375,8.528146743774414,-6.756437301635742,-4.836287498474121
1790334787151676700,12.5626767578125,3.552995204925537,-6.069301128387451,1.9584569931030273
1790334787168111900,12.57911181640625,3.406949043273926,-6.382941722869873,3.134010076522827
1790334787184556500,12.595556640625,6.564900875091553,-13.079524040222168,-9.519346237182617
1790334787200996400,12.611996337890625,4.692635536193848,-8.236053466796875,-7.271190643310547
1790334787217437000,12.62843701171875,4.256890773773193,-12.112266540527344,-0.16998831927776337
1790334787233874000,12.6448740234375,-0.5003881454467773,-8.846575736999512,-7.893682956695557
1790334787250310700,12.661310546875,3.134010076522827,-6.4380083084106445,-7.371747016906738
1790334787266749700,12.677749755859375,4.857835292816162,-6.531382083892822,-5.671864032745361
1790334787283187700,12.694187744140624,4.261679172515869,-3.797203779220581,0.8571242094039917
1790334787299625500,12.71062548828125,1.5921441316604614,-10.381258964538574,-1.1061211824417114
1790334787316075800,12.72707568359375,5.889736175537109,-6.253654956817627,2.6168625354766846
1790334787332511500,12.743511474609376,8.106766700744629,-17.113754272460938,-8.585607528686523
1790334787348946200,12.7599462890625,-2.47560453414917,-10.589553833007812,-1.3048399686813354
1790334787365386500,12.776386474609374,5.145139217376709,-8.813055992126465,1.216254472732544
1790334787381822700,12.79282275390625,-0.4620809257030487,-7.402871608734131,-10.32858657836914
1790334787398259000,12.809259033203125,7.970297336578369,-5.458779811859131,-7.237671852111816
1790334787414692600,12.825692626953124,6.904877662658691,-5.961562156677246,-0.14604631066322327
1790334787431142000,12.842141845703125,6.361393928527832,-5.054159641265869,3.866635799407959
1790334787447585300,12.858585205078125,3.272873640060425,-10.704475402832031,-1.4437036514282227
1790334787464020500,12.8750205078125,6.045359134674072,-7.726089000701904,1.05105459690094
1790334787480455000,12.891454833984374,7.3238630294799805,-11.63103199005127,-6.038176536560059
1790334787496890000,12.90789013671875,-3.3423056602478027,-10.108319282531738,-5.032611846923828
1790334787513326800,12.924326904296874,2.274491548538208,-9.217676162719727,-2.097320795059204
1790334787529764900,12.940764892578125,-0.6129156351089478,-8.501810073852539,-9.660603523254395
1790334787546205200,12.957205078125,2.051830768585205,-5.051765441894531,-7.173028469085693
1790334787562656300,12.97365625,4.623203277587891,-6.718130111694336,-8.051700592041016
1790334787579095300,12.99009521484375,4.491522312164307,-3.7158010005950928,-1.0845733880996704
1790334787595532000,13.006531982421874,2.0470423698425293,-9.279925346374512,-0.6200982332229614
1790334787611975700,13.0229755859375,2.8874073028564453,-5.173870086669922,1.7525556087493896
1790334787628417300,13.039417236328125,2.9089550971984863,-14.360422134399414,-3.7876269817352295
1790334787644856300,13.055856201171874,4.644751071929932,-10.309432983398438,-6.4834980964660645
1790334787661294800,13.072294921875,7.249642848968506,-13.086706161499023,-8.643068313598633
1790334787677747700,13.088747802734375,-2.252943754196167,-9.564835548400879,-10.077195167541504
1790334787694185200,13.105185302734375,1.6903064250946045,-8.87291145324707,-3.0142998695373535
1790334787710623500,13.12162353515625,-1.946485996246338,-7.268796443939209,-8.439560890197754
1790334787727060500,13.138060546875,4.441244125366211,-6.368576526641846,-5.829881191253662
1790334787743497700,13.154497802734374,6.078877925872803,-6.746860504150391,-6.9455790519714355
1790334787759935700,13.170935791015625,5.418078422546387,-4.8051629066467285,-5.621585369110107
1790334787776372500,13.18737255859375,5.240907669067383,-5.137956619262695,2.691082715988159
1790334787792809000,13.20380908203125,4.290409564971924,-5.327098846435547,2.4851813316345215
1790334787809250000,13.22025,0.16519992053508759,-15.88074016571045,-4.2329487800598145
1790334787825684700,13.236684814453126,5.406107425689697,-6.466738700866699,-0.6799532771110535
1790334787842120700,13.25312060546875,5.906495571136475,-12.770671844482422,-9.232041358947754
1790334787858562300,13.269562255859375,4.206612586975098,-17.096994400024414,-9.057265281677246
1790334787875001000,13.2860009765625,2.1595699787139893,-9.311050415039062,-3.624821424484253
1790334787891437300,13.302437255859376,-0.0694318488240242,-8.731653213500977,-8.999804496765137
1790334787907871700,13.318871826171875,1.0319008827209473,-3.251325845718384,-1.6376339197158813
1790334787924317200,13.335317138671876,0.9528923034667969,-5.149928092956543,-9.536105155944824
1790334787940756500,13.351756591796875,6.892906665802002,-6.14831018447876,-8.087613105773926
1790334787957194000,13.368194091796875,3.995922565460205,-5.157110691070557,-2.0231003761291504
1790334787973634000,13.384634033203126,7.400477409362793,-5.736507415771484,-2.8131868839263916
1790334787990072600,13.401072509765624,1.3982137441635132,-10.488997459411621,0.3711012601852417
1790334788006512400,13.417512451171875,7.376535415649414,-4.623203277587891,1.678335428237915
1790334788022949400,13.433949462890626,6.603208065032959,-14.209587097167969,-5.092466831207275
1790334788039385900,13.4503857421875,-4.627991676330566,-7.85537576675415,-7.4100542068481445
1790334788055838500,13.46683837890625,8.305485725402832,-10.522516250610352,-8.283937454223633
1790334788072278300,13.4832783203125,4.865017890930176,-12.167332649230957,-4.199429988861084
1790334788088703200,13.499703125,0.8547300100326538,-9.708487510681152,-4.0294413566589355
1790334788105148700,13.516148681640624,1.721431016921997,-9.718064308166504,-9.732429504394531
1790334788121624000,13.5326240234375,4.364629745483398,-3.399766445159912,-2.229001760482788
1790334788138061600,13.5490615234375,2.3104045391082764,-6.411672115325928,-8.233659744262695
1790334788154497000,13.5654970703125,5.75326681137085,-4.9799394607543945,-5.767632007598877
1790334788170847200,13.58184716796875,5.8203043937683105,-8.89685344696045,-2.7485435009002686
1790334788187299000,13.598299072265625,6.845022678375244,-3.758896589279175,-0.47884035110473633
1790334788203736600,13.614736572265626,3.5051112174987793,-11.980585098266602,-1.2689268589019775
1790334788220172300,13.63117236328125,7.7213006019592285,-5.281609058380127,1.1444283723831177
1790334788236606000,13.64760595703125,4.168305397033691,-11.221623420715332,-2.7437551021575928
1790334788253043200,13.664043212890626,-2.341529369354248,-7.0341644287109375,0.2298433631658554
1790334788269476600,13.6804765625,5.762843608856201,-12.284648895263672,-8.999804496765137
1790334788285915400,13.696915283203126,5.1595048904418945,-8.034940719604492,-4.4532151222229
1790334788302368000,13.713367919921875,4.537012100219727,-9.378087997436523,-5.913678169250488
1790334788318806500,13.729806640625,-3.9432501792907715,-12.739546775817871,-5.882553577423096
1790334788335245000,13.7462451171875,3.533841609954834,-6.967126846313477,-3.8115692138671875
1790334788351690000,13.76268994140625,-4.972756862640381,-7.254431247711182,-8.81784439086914
1790334788368130000,13.779130126953126,2.3726539611816406,-6.45476770401001,-1.845929503440857
1790334788384569300,13.7955693359375,1.86508309841156,-10.986991882324219,-8.937555313110352
1790334788401004500,13.812004638671874,2.3032219409942627,-5.475539207458496,0.44771572947502136
1790334788417447700,13.82844775390625,2.607285737991333,-6.229712963104248,-8.367734909057617
1790334788433885000,13.844885009765624,3.7828385829925537,-7.975085735321045,-4.4077253341674805
1790334788450323500,13.861323486328125,4.81473970413208,-7.4100542068481445,-5.635950565338135
1790334788466761200,13.87776123046875,6.347028732299805,-4.065354347229004,-4.876988887786865
1790334788483199700,13.89419970703125,6.785167694091797,-7.292738437652588,-3.622427225112915
1790334788499637500,13.910637451171874,6.540958881378174,-3.1890766620635986,-0.49799394607543945
1790334788516074500,13.927074462890625,4.910507678985596,-8.415618896484375,-2.7437551021575928
1790334788532512300,13.94351220703125,5.442020416259766,-4.757278919219971,-3.641580820083618
1790334788548963000,13.959963134765625,2.425326347351074,-8.17141056060791,-3.406949043273926
1790334788565400300,13.976400390625,6.1052141189575195,-5.310339450836182,1.173158884048462
1790334788581837600,13.992837646484375,0.6512228846549988,-12.540828704833984,-3.8115692138671875
1790334788598278100,14.009278076171874,1.0534487962722778,-6.524199485778809,-0.6991068720817566
1790334788614712600,14.025712646484376,4.390965938568115,-8.10437297821045,-8.96149730682373
1790334788631145000,14.04214501953125,6.162675380706787,-6.160281181335449,0.2992752194404602
1790334788647576300,14.058576416015624,0.0933738648891449,-15.547945976257324,-6.162675380706787
1790334788664016000,14.075015869140625,3.3016040325164795,-5.987898349761963,-0.8595184087753296
1790334788680451000,14.091451171875,5.995080947875977,-9.667786598205566,-8.939949035644531
1790334788696889600,14.1078896484375,3.5386300086975098,-5.954379558563232,-2.6360161304473877
1790334788713327000,14.1243271484375,5.154716491699219,-12.480973243713379,-9.457097053527832
1790334788729761500,14.140761474609375,3.7469255924224854,-15.026009559631348,-5.621585369110107
1790334788746196000,14.157196044921875,1.8507179021835327,-6.521805286407471,-7.620744228363037
1790334788762631000,14.173630859375,-0.1364694982767105,-12.574347496032715,-10.685321807861328
1790334788779064000,14.19006396484375,3.205836057662964,-7.908048152923584,-2.698265314102173
1790334788795513000,14.20651318359375,1.1276689767837524,-8.44434928894043,-8.772355079650879
1790334788811947800,14.22294775390625,3.3016040325164795,-4.606443881988525,0.9002198576927185
1790334788828384000,14.239384033203125,-1.3958195447921753,-6.387730121612549,-9.215282440185547
1790334788844842200,14.25584228515625,2.1715409755706787,-5.623979568481445,0.026336219161748886
1790334788861276000,14.27227587890625,2.3535003662109375,-7.836222171783447,-8.846575736999512
1790334788877715000,14.28871484375,5.894524574279785,-6.943184852600098,-4.331110954284668
1790334788894020600,14.3050205078125,2.875436305999756,-6.485892295837402,-5.102043628692627
1790334788910372900,14.321372802734375,4.946420669555664,-7.094019412994385,-9.07641887664795
1790334788926776300,14.3377763671875,5.944802761077881,-6.775590896606445,-3.5745432376861572
1790334788943214300,14.35421435546875,7.529764175415039,-4.034229755401611,-3.552995204925537
1790334788959655200,14.3706552734375,1.4676456451416016,-13.697227478027344,-7.513004779815674
1790334788976088600,14.387088623046875,4.891354084014893,-7.568071365356445,-6.160281181335449
1790334788992530700,14.40353076171875,4.355052947998047,-8.556877136230469,-3.555389642715454
1790334789008966100,14.419966064453124,7.12035608291626,-4.661510944366455,0.040701430290937424
1790334789025402600,14.436402587890624,2.7293899059295654,-11.422736167907715,-4.393360137939453
1790334789041864200,14.4528642578125,6.4164605140686035,-4.477157115936279,1.381454348564148
1790334789058299400,14.46929931640625,5.499481201171875,-10.855310440063477,-5.475539207458496
1790334789074741500,14.485741455078125,-0.33997663855552673,-5.980715751647949,2.8155810832977295
1790334789091059500,14.5020595703125,6.375759124755859,-9.478644371032715,-4.503493309020996
1790334789107413500,14.51841357421875,5.317522048950195,-7.817068576812744,-1.4939818382263184
1790334789123862500,14.534862548828125,5.710171222686768,-15.574281692504883,-8.185775756835938
1790334789140297200,14.551297119140624,5.829881191253662,-9.299078941345215,-3.069366693496704
1790334789156792300,14.567792236328126,4.896142482757568,-10.730812072753906,-7.163451671600342
1790334789173229000,14.58422900390625,2.056619167327881,-10.486603736877441,-4.338293552398682
1790334789189666300,14.600666259765624,4.290409564971924,-6.1770405769348145,-5.856217384338379
1790334789206106400,14.6171064453125,-2.3918075561523438,-8.152256965637207,-10.697293281555176
1790334789222542600,14.63354248046875,3.0142998695373535,-10.290278434753418,-6.251260757446289
1790334789238985200,14.649985107421875,-4.077325344085693,-12.72996997833252,-10.228029251098633
1790334789255421000,14.6664208984375,4.034229755401611,-5.336675643920898,-1.7932571172714233
1790334789271856400,14.6828564453125,-1.5131354331970215,-6.028599739074707,-6.780379295349121
1790334789288308700,14.699308837890625,3.2345664501190186,-4.1874589920043945,-3.090914487838745
1790334789304744400,14.715744384765625,1.2066776752471924,-6.823474884033203,-3.909731388092041
1790334789321190000,14.73218994140625,3.7684733867645264,-4.405331134796143,-2.0685901641845703
1790334789337629700,14.748629638671876,2.6408045291900635,-9.172186851501465,-5.310339450836182
1790334789354067000,14.76506689453125,-1.0438719987869263,-5.748478412628174,-6.775590896606445
1790334789370512000,14.781511962890624,9.074024200439453,-8.60236644744873,-4.345476150512695
1790334789386944300,14.7979443359375,8.101978302001953,-6.1530985832214355,-7.711723804473877
1790334789403402800,14.81440283203125,5.896918773651123,-6.4595561027526855,-3.201047658920288
1790334789419836700,14.830836669921876,6.428431510925293,-2.669534921646118,-2.360682964324951
1790334789436271900,14.84727197265625,0.9217676520347595,-11.346121788024902,-6.610390663146973
1790334789452714800,14.86371484375,4.934449672698975,-4.398148536682129,-1.4532804489135742
1790334789469150000,14.88014990234375,1.6496049165725708,-16.553510665893555,-7.781155586242676
1790334789485593600,14.896593505859375,7.994239330291748,-5.853823184967041,-0.21547815203666687
1790334789502025200,14.913025146484374,0.1364694982767105,-8.62630844116211,0.7972691655158997
1790334789518457600,14.92945751953125,6.203376770019531,-8.710105895996094,-2.049436569213867
1790334789534909400,14.945909423828125,2.894589900970459,-8.501810073852539,-0.8044517636299133
1790334789551345200,14.96234521484375,-0.272938996553421,-6.335057735443115,-2.561795711517334
1790334789567780400,14.9787802734375,4.290409564971924,-10.666168212890625,-10.005369186401367
1790334789584218000,14.995218017578125,0.9911994934082031,-8.489839553833008,-2.808398485183716
1790334789600649200,15.011649169921874,0.790086567401886,-8.678980827331543,-8.061277389526367
1790334789617105400,15.02810546875,0.7852981686592102,-7.450755596160889,-7.082048416137695
1790334789633539300,15.044539306640624,5.04218864440918,-12.562376022338867,-8.71728801727295
1790334789649991700,15.06099169921875,2.1595699787139893,-18.10734748840332,-5.054159641265869
1790334789666426600,15.077426513671876,-6.0190229415893555,-4.314351558685303,-5.841852188110352
1790334789682860800,15.09386083984375,5.475539207458496,-8.236053466796875,-7.3885064125061035
1790334789699306800,15.110306640625,3.359065055847168,-7.194576263427734,-3.3303346633911133
1790334789715737300,15.1267373046875,-1.192312479019165,-12.114660263061523,-9.5408935546875
1790334789732180500,15.143180419921874,0.6320692300796509,-11.36048698425293,-4.022258758544922
1790334789748612600,15.159612548828125,2.9448680877685547,-13.864822387695312,-11.487380027770996
1790334789765046800,15.176046875,3.3423056602478027,-5.595249176025391,-0.12689268589019775
1790334789781500200,15.192500244140625,0.8379706144332886,-8.398859977722168,-8.382100105285645
1790334789797940000,15.20893994140625,-0.09816227108240128,-6.100425720214844,1.8124107122421265
1790334789814389500,15.225389404296875,-0.10295066982507706,-4.292803764343262,-8.197746276855469
1790334789830833000,15.2418330078125,2.6360161304473877,-3.840299606323242,-4.1180267333984375
1790334789847267300,15.258267333984374,2.5905263423919678,-7.5632829666137695,-5.363011837005615
1790334789863712000,15.2747119140625,1.9249382019042969,-4.5394062995910645,-3.2130186557769775
1790334789880146400,15.291146484375,3.5434184074401855,-8.310274124145508,-5.899312973022461
1790334789896532000,15.307531982421875,6.720524311065674,-6.694188117980957,-6.809109687805176
1790334789912966100,15.323966064453124,-0.7924807667732239,-7.714118003845215,-5.190629482269287
1790334789929396000,15.34039599609375,9.064447402954102,-5.154716491699219,-4.137180328369141
1790334789945839600,15.356839599609375,6.701370716094971,-7.194576263427734,-4.778826713562012
1790334789962213600,15.373213623046874,7.383718013763428,-7.1251444816589355,-5.497087001800537
1790334789978674200,15.389674072265626,1.8148049116134644,-10.180145263671875,-2.1739351749420166
1790334789995103000,15.40610302734375,7.4770917892456055,-5.698200225830078,-2.674323320388794
1790334790011534800,15.422534912109375,3.1675288677215576,-10.970232009887695,-4.632780075073242
1790334790027990000,15.438989990234376,6.627150535583496,-5.102043628692627,0.3734954595565796
1790334790044422100,15.455422119140625,2.715024709701538,-8.913613319396973,-0.667982280254364
1790334790060866600,15.471866455078125,8.360552787780762,-3.6846764087677,1.161187767982483
1790334790077341700,15.488341796875,6.780379295349121,-10.091560363769531,-1.403002142906189
1790334790093799200,15.504799072265625,5.4875102043151855,-7.022193431854248,2.054224967956543
1790334790110244600,15.52124462890625,7.0341644287109375,-11.458649635314941,-1.9919757843017578
1790334790126678500,15.537678466796875,-1.0223240852355957,-7.814674377441406,1.0462661981582642
1790334790143136500,15.554136474609376,7.814674377441406,-10.230423927307129,-4.745307922363281
1790334790159567400,15.5705673828125,8.40843677520752,-6.19379997253418,1.3838485479354858
1790334790175999200,15.586999267578125,5.693411827087402,-10.429142951965332,-5.91128396987915
1790334790192445000,15.60344482421875,6.155492782592773,-9.100360870361328,0.7254431247711182
1790334790208874500,15.61987451171875,5.8442463874816895,-9.68933391571045,-5.856217384338379
1790334790225316900,15.63631689453125,4.580107688903809,-9.062053680419922,-5.250484466552734
1790334790241747200,15.652747314453125,3.529053211212158,-6.4164605140686035,-5.698200225830078
1790334790258177000,15.669177001953125,4.546588897705078,-6.584054470062256,-4.252102375030518
1790334790274631200,15.685631103515625,3.4165258407592773,-9.425971984863281,-6.279991149902344
1790334790291062800,15.702062744140624,1.9536685943603516,-13.797784805297852,-4.067748546600342
1790334790307502600,15.718502685546875,7.184999465942383,-10.5344877243042,-6.291962146759033
1790334790323936500,15.7349365234375,3.2752678394317627,-11.860875129699707,-8.003816604614258
1790334790340366800,15.751366943359375,-2.5785553455352783,-6.256049156188965,-4.2975921630859375
1790334790356803300,15.76780322265625,0.8068459630012512,-11.025299072265625,-6.387730121612549
1790334790373235000,15.78423486328125,5.480327606201172,-6.722918510437012,-3.974374771118164
1790334790389692200,15.800692138671875,-3.2321722507476807,-11.05642318725586,-6.0405707359313965
1790334790406124500,15.81712451171875,7.110779285430908,-8.061277389526367,-5.140350818634033
1790334790422603000,15.83360302734375,6.028599739074707,-10.417171478271484,-5.626373767852783
1790334790439044400,15.85004443359375,5.245696067810059,-10.08198356628418,-3.6750996112823486
1790334790455474200,15.86647412109375,3.2776620388031006,-10.845733642578125,-5.633556365966797
1790334790471910000,15.882909912109374,7.041347026824951,-8.367734909057617,-4.891354084014893
1790334790488341000,15.899341064453125,1.843535304069519,-7.46033239364624,-6.2392897605896
1790334790504772900,15.91577294921875,5.288791656494141,-9.943120002746582,-4.927267074584961
1790334790521229800,15.932229736328125,1.2210428714752197,-10.374075889587402,-0.06224924325942993
1790334790537659100,15.9486591796875,4.924872875213623,-6.6127848625183105,-4.699818134307861
1790334790554103000,15.96510302734375,0.12928688526153564,-11.96861457824707,-4.398148536682129
1790334790570539800,15.981539794921876,3.157952070236206,-10.314221382141113,-6.497863292694092
1790334790586969900,15.997969970703124,0.8930372595787048,-11.058817863464355,-2.322375535964966
1790334790603406300,16.01440625,4.946420669555664,-7.8098859786987305,-4.797980308532715
1790334790619836700,16.030836669921875,0.021547814831137657,-7.673416614532471,-3.8714241981506348
1790334790636292900,16.04729296875,6.756437301635742,-10.378864288330078,-7.06528902053833
1790334790652725800,16.063725830078123,7.343016624450684,-8.152256965637207,-1.3287819623947144
1790334790669158700,16.08015869140625,2.4875755310058594,-9.536105155944824,-1.8267759084701538
1790334790685592000,16.096592041015626,4.742913722991943,-8.178592681884766,-2.4420857429504395
1790334790702028500,16.113028564453124,4.970362663269043,-8.939949035644531,-3.552995204925537
1790334790718482000,16.12948193359375,7.038952827453613,-6.088454723358154,-0.8978256583213806
1790334790734914000,16.1459140625,2.9328970909118652,-8.585607528686523,-2.7102363109588623
1790334790751348700,16.1623486328125,5.556941986083984,-6.0621185302734375,-2.7485435009002686
1790334790767794200,16.178794189453125,3.7014358043670654,-11.14500904083252,-3.3638534545898438
1790334790784224800,16.195224853515626,8.027758598327637,-5.449203014373779,-5.04218864440918
1790334790800658400,16.211658447265624,3.9193081855773926,-9.028534889221191,-4.216189384460449
1790334790817102600,16.2281025390625,6.1267619132995605,-4.273650169372559,-5.2265424728393555
1790334790833538300,16.244538330078125,1.9536685943603516,-9.897629737854004,-7.275979042053223
1790334790849975000,16.26097509765625,5.377377033233643,-5.669469833374023,-5.20978307723999
1790334790866410500,16.277410400390625,3.2824504375457764,-9.131484985351562,-6.84981107711792
1790334790882860300,16.2938603515625,3.2297780513763428,-7.383718013763428,-2.0207061767578125
1790334790899292700,16.310292724609376,2.10210919380188,-8.216899871826172,-9.8784761428833
1790334790915728000,16.326727783203125,4.72376012802124,-6.337451934814453,-1.3407529592514038
1790334790932180500,16.343180419921875,1.9081788063049316,-12.217611312866211,-9.366117477416992
1790334790948651300,16.3596513671875,2.126051187515259,-7.453149795532227,0.5482721924781799
1790334790965111600,16.376111572265625,0.7038952708244324,-11.571176528930664,-8.736441612243652
1790334790981546800,16.392546630859375,3.4189200401306152,-8.552088737487793,-3.4787750244140625
1790334790997981400,16.4089814453125,3.428496837615967,-12.516886711120605,-4.910507678985596
1790334791014432300,16.425432373046874,2.7006595134735107,-6.715735912322998,-3.471592426300049
1790334791030865000,16.441864990234375,2.3056161403656006,-11.712434768676758,-0.24660277366638184
1790334791047304000,16.458303955078126,3.555389642715454,-11.683704376220703,-9.016563415527344
1790334791063746300,16.474746337890625,6.600813865661621,-5.329493045806885,-1.2856862545013428
1790334791080167000,16.4911669921875,1.2617442607879639,-6.4834980964660645,-3.97916316986084
1790334791096628700,16.507628662109376,5.975927352905273,-7.718906402587891,-0.6105214357376099
1790334791113065200,16.524065185546874,2.8179752826690674,-10.474632263183594,-3.3423056602478027
1790334791129566500,16.54056640625,8.200140953063965,-5.896918773651123,-4.534617900848389
1790334791145965600,16.556965576171876,5.20978307723999,-6.67982292175293,-2.7700912952423096
1790334791162423000,16.573423095703124,6.2201361656188965,-5.188235282897949,-4.577713489532471
1790334791177912000,16.588912109375,-0.9792284965515137,-7.438784599304199,-4.766855716705322
1790334791194346000,16.605345947265626,5.499481201171875,-6.983886241912842,-3.471592426300049
1790334791210778600,16.621778564453123,1.656787633895874,-7.967903137207031,-4.28322696685791
1790334791227212000,16.6382119140625,5.341464042663574,-5.992686748504639,0.24181437492370605
1790334791243646700,16.654646728515626,-3.2417490482330322,-9.734824180603027,-9.880870819091797
1790334791260087600,16.671087646484374,6.234501361846924,-8.180987358093262,-1.113303780555725
1790334791276524500,16.687524658203124,3.7181951999664307,-9.047688484191895,-8.396465301513672
1790334791292985300,16.7039853515625,3.138798475265503,-7.4986395835876465,-2.3511061668395996
1790334791309426700,16.7204267578125,0.28969839215278625,-13.606247901916504,-4.6040496826171875
1790334791325862000,16.73686181640625,3.380612850189209,-3.31118106842041,-4.999093055725098
1790334791342299000,16.753298828125,5.623979568481445,-6.682217121124268,-3.620033025741577
1790334791358736000,16.76973583984375,1.0271124839782715,-9.435548782348633,-3.971980571746826
1790334791375193900,16.78619384765625,3.912125587463379,-9.210494041442871,-2.7772738933563232
1790334791391644200,16.80264404296875,2.0638017654418945,-11.350910186767578,-3.2824504375457764
1790334791408079400,16.819079345703123,10.41956615447998,-5.724536418914795,-5.585672378540039
1790334791424512800,16.8355126953125,5.008669853210449,-7.141903877258301,-2.2840683460235596
1790334791440946400,16.851946533203126,6.45476770401001,-6.603208065032959,-2.983175277709961
1790334791457435100,16.86843505859375,2.492363929748535,-7.5848307609558105,-6.066906929016113
1790334791473869800,16.884869873046874,5.1331682205200195,-3.9049429893493652,-5.616796970367432
1790334791490303200,16.90130322265625,-4.14915132522583,-8.463502883911133,-8.877699851989746
1790334791506758100,16.917758056640626,4.3406877517700195,-8.846575736999512,-1.601720929145813
1790334791523191800,16.93419189453125,2.8658595085144043,-14.147337913513184,-9.497797966003418
1790334791539631400,16.95063134765625,4.07014274597168,-6.217741966247559,-2.9281086921691895
1790334791556072000,16.967072021484373,-1.01753568649292,-9.059659004211426,-4.022258758544922
1790334791572554800,16.9835546875,3.294421434402466,-7.307103633880615,-4.6471452713012695
1790334791588997000,16.9999970703125,3.294421434402466,-8.439560890197754,-2.9233202934265137
1790334791605435100,17.01643505859375,4.469974517822266,-10.915165901184082,-5.928043365478516
1790334791621891600,17.0328916015625,5.750872611999512,-7.3669586181640625,-1.5682021379470825
1790334791638327000,17.0493271484375,4.754884719848633,-8.037335395812988,-3.97916316986084
1790334791654762500,17.065762451171874,8.731653213500977,-5.719748020172119,-4.175487995147705
1790334791671208700,17.082208740234375,1.9823989868164062,-8.214506149291992,-3.995922565460205
1790334791687642400,17.098642333984376,5.940014362335205,-7.113173484802246,-3.9408559799194336
1790334791704133600,17.115133544921875,1.0271124839782715,-9.660603523254395,-6.813898086547852
1790334791720568300,17.131568359375,4.623203277587891,-4.7836151123046875,-0.9648633003234863
1790334791737003000,17.1480029296875,4.110844135284424,-6.813898086547852,-7.465120792388916
1790334791753461800,17.164461669921874,3.7038300037384033,-9.160215377807617,-4.189853191375732
1790334791769897500,17.1808974609375,-1.7573440074920654,-11.549629211425781,-6.04775333404541
1790334791786330400,17.197330322265625,7.062894821166992,-9.41639518737793,-4.513070106506348
1790334791802773800,17.213773681640625,5.027823448181152,-11.192893028259277,-2.300827741622925
1790334791819211000,17.2302109375,0.5386953949928284,-7.939172744750977,-6.251260757446289
1790334791835648000,17.24664794921875,4.807557106018066,-6.955155849456787,-1.2018892765045166
1790334791852088300,17.26308837890625,0.031124621629714966,-9.040505409240723,-4.802768707275391
1790334791868550400,17.27955029296875,9.435548782348633,-7.486668586730957,-8.135497093200684
1790334791884987600,17.295987548828126,4.067748546600342,-8.164227485656738,-1.280897855758667
1790334791901422300,17.31242236328125,8.130708694458008,-6.3302693367004395,-4.2544965744018555
1790334791917860900,17.32886083984375,3.3255462646484375,-9.406818389892578,-6.31829833984375
1790334791934233900,17.34523388671875,2.96162748336792,-7.01979923248291,-1.3694833517074585
1790334791950684400,17.361684326171876,3.380612850189209,-8.343792915344238,-5.324704647064209
1790334791967116000,17.378115966796877,4.76924991607666,-6.485892295837402,-1.2880805730819702
1790334791983547000,17.394546875,3.181894063949585,-8.506598472595215,-6.9024834632873535
1790334791999994600,17.41099462890625,3.7181951999664307,-6.7061591148376465,-0.8403648138046265
1790334792016427300,17.42742724609375,-1.3072341680526733,-11.30302619934082,-5.738901615142822
1790334792032871000,17.443870849609375,6.452373504638672,-8.427590370178223,-3.313575267791748
1790334792049310500,17.460310546875,3.93367338180542,-8.164227485656738,-2.3104045391082764
1790334792065782300,17.4767822265625,1.5729905366897583,-9.241618156433105,-5.451597213745117
1790334792082221300,17.49322119140625,5.947196960449219,-8.185775756835938,-5.0685248374938965
1790334792098655000,17.509655029296876,1.9153614044189453,-5.671864032745361,-3.203441858291626
1790334792115105500,17.52610546875,8.801085472106934,-7.546523571014404,-7.661445617675781
1790334792131541200,17.542541259765624,3.1244332790374756,-9.691728591918945,-2.513911724090576
1790334792148022800,17.559022705078124,5.731719017028809,-8.214506149291992,-4.9368438720703125
1790334792164466000,17.5754658203125,2.585737943649292,-8.702922821044922,-6.493074893951416
1790334792180902400,17.59190234375,4.050989151000977,-3.825934410095215,-0.6416460275650024
1790334792197345300,17.60834521484375,3.2561142444610596,-8.56884765625,-7.568071365356445
1790334792213781800,17.62478173828125,4.9368438720703125,-7.043741226196289,-2.360682964324951
1790334792230217000,17.641217041015626,2.0207061767578125,-9.897629737854004,-2.030282974243164
1790334792246676700,17.6576767578125,2.999934673309326,-9.263166427612305,-6.502651691436768
1790334792263112700,17.67411279296875,3.7828385829925537,-8.288725852966309,-2.145204782485962
1790334792279574000,17.690573974609375,3.2154128551483154,-8.451532363891602,-6.658275127410889
1790334792296015400,17.707015380859374,6.138733386993408,-9.299078941345215,-2.070984363555908
1790334792312453400,17.723453369140625,3.3710360527038574,-9.466673851013184,-4.764461517333984
1790334792328891600,17.7398916015625,6.773196697235107,-5.2480902671813965,-4.395754337310791
1790334792345330200,17.756330078125,0.09816227108240128,-6.081272125244141,-5.789179801940918
1790334792361777400,17.77277734375,4.666299343109131,-5.834669589996338,-2.674323320388794
1790334792378215400,17.78921533203125,-2.006340980529785,-8.413225173950195,-8.7484130859375
1790334792394652400,17.80565234375,6.406883716583252,-8.71728801727295,-3.84269380569458
1790334792411088600,17.822088623046874,-1.920149803161621,-12.248735427856445,-5.432443618774414
1790334792427526000,17.83852587890625,5.985504150390625,-6.555324077606201,-2.537853717803955
1790334792443960300,17.854960205078125,1.534683346748352,-8.678980827331543,-2.762908697128296
1790334792460393500,17.8713935546875,3.485957622528076,-9.349357604980469,-6.962338447570801
1790334792476829000,17.887828857421876,8.020575523376465,-6.627150535583496,-6.847416877746582
1790334792493276200,17.904276123046873,2.9712042808532715,-8.367734909057617,-3.272873640060425
1790334792509711600,17.920711669921875,5.3582234382629395,-4.434061527252197,-3.064578056335449
1790334792526144800,17.937144775390625,1.6089035272598267,-11.623848915100098,-8.815450668334961
1790334792542585300,17.95358544921875,5.377377033233643,-5.264849662780762,1.8579005002975464
1790334792559022000,17.97002197265625,-1.460463047027588,-11.640608787536621,-6.3518171310424805
1790334792575457500,17.98645751953125,7.544129371643066,-6.756437301635742,-2.3535003662109375
1790334792591894800,18.002894775390626,6.766014099121094,-7.898471355438232,2.0901381969451904
1790334792608337400,18.01933740234375,3.2585084438323975,-8.283937454223633,-5.142745018005371
1790334792624775200,18.035775146484376,6.344634532928467,-5.39174222946167,-6.01423454284668
1790334792641211000,18.0522109375,4.8937482833862305,-10.654197692871094,-5.463568210601807
1790334792657645600,18.0686455078125,4.620809078216553,-6.658275127410889,-3.8163576126098633
1790334792674082300,18.085082275390626,-2.889801502227783,-13.21599292755127,-11.044452667236328
1790334792690520000,18.10152001953125,6.615179061889648,-5.434837818145752,-1.7597382068634033
1790334792706957000,18.11795703125,1.9345149993896484,-7.354987621307373,-2.0374655723571777
1790334792723396900,18.13439697265625,3.270479440689087,-9.940725326538086,-2.7700912952423096
1790334792739843600,18.150843505859374,3.3518824577331543,-6.215347766876221,-7.762001991271973
1790334792756282600,18.16728271484375,4.972756862640381,-7.38132381439209,-6.610390663146973
1790334792772719900,18.183719970703127,6.1315507888793945,-6.1267619132995605,-5.568912982940674
1790334792789164000,18.2001640625,-0.24420857429504395,-13.400346755981445,-8.159439086914062
1790334792805603800,18.216603759765626,4.879383087158203,-6.50025749206543,-2.2673089504241943
1790334792822042600,18.233042724609376,-4.084507942199707,-9.030928611755371,-4.754884719848633
1790334792838482000,18.24948193359375,5.676652431488037,-7.1706342697143555,-2.6360161304473877
1790334792854925600,18.265925537109375,7.0988078117370605,-4.532223701477051,0.4692635238170624
1790334792871360800,18.28236083984375,4.000710964202881,-13.725957870483398,-8.9064302444458
1790334792887799000,18.298799072265624,6.943184852600098,-8.224082946777344,-0.3495534360408783
1790334792904239600,18.315239501953126,7.673416614532471,-6.560112476348877,-6.011840343475342
1790334792920680200,18.33168017578125,3.023876667022705,-6.150704383850098,0.3495534360408783
1790334792937121300,18.348121337890625,-1.5705963373184204,-10.0580415725708,-9.552865028381348
1790334792953559300,18.364559326171875,4.817133903503418,-7.3885064125061035,-3.399766445159912
1790334792970000400,18.38100048828125,-3.023876667022705,-4.778826713562012,-1.9943699836730957
1790334792986512600,18.3975126953125,4.37420654296875,-9.150638580322266,-4.189853191375732
1790334793002950700,18.41395068359375,2.913743495941162,-6.7708024978637695,-4.9152960777282715
1790334793019409400,18.430409423828124,1.4939818382263184,-9.02135181427002,-7.091625213623047
1790334793035849000,18.446848876953126,3.9480385780334473,-6.806715488433838,-2.1787235736846924
1790334793052282600,18.46328271484375,-0.6991068720817566,-6.48828649520874,-8.719682693481445
1790334793068718800,18.47971875,4.113238334655762,-7.5417351722717285,-4.034229755401611
1790334793085121300,18.496121337890624,0.9600749015808105,-6.828263282775879,0.7086837291717529
1790334793101564000,18.51256396484375,5.173870086669922,-8.652645111083984,-4.714183330535889
1790334793118018600,18.5290185546875,9.50737476348877,-7.0988078117370605,-5.224148273468018
1790334793134455300,18.545455322265624,3.8714241981506348,-9.911994934082031,-6.538564682006836
1790334793150897200,18.561897216796876,3.136404275894165,-6.423643112182617,-1.235408067703247
1790334793167336400,18.57833642578125,2.8203697204589844,-12.469002723693848,-3.3662476539611816
1790334793183788800,18.594788818359376,5.240907669067383,-6.761225700378418,-3.8810009956359863
1790334793200201000,18.611200927734377,4.608838081359863,-4.967968463897705,-0.8403648138046265
1790334793216586200,18.627586181640623,3.6583402156829834,-9.081207275390625,-5.475539207458496
1790334793233029400,18.644029296875,8.267178535461426,-7.2113356590271,-3.2130186557769775
1790334793249465300,18.66046533203125,3.507505416870117,-12.126631736755371,-7.888894557952881
1790334793265909200,18.6769091796875,0.9265560507774353,-8.856152534484863,-2.8443117141723633
1790334793282352400,18.693352294921876,3.7660791873931885,-7.642292022705078,-3.294421434402466
1790334793298836200,18.709836181640625,4.23773717880249,-6.947973251342773,-4.663905143737793
1790334793315287600,18.72628759765625,6.952761650085449,-6.311115741729736,-2.1068975925445557
1790334793331726600,18.7427265625,3.2393548488616943,-7.015010833740234,-5.547365188598633
1790334793348182500,18.7591826171875,5.092466831207275,-7.469909191131592,-1.359906554222107
1790334793364618500,18.775618408203126,4.774038314819336,-13.139378547668457,-8.085219383239746
1790334793381059000,18.79205908203125,-1.7980455160140991,-5.56173038482666,-1.2210428714752197
1790334793397506300,18.80850634765625,4.314351558685303,-9.440337181091309,-4.606443881988525
1790334793413947000,18.82494677734375,2.935291290283203,-9.27034854888916,-4.666299343109131
1790334793430392000,18.84139208984375,5.947196960449219,-7.673416614532471,-2.341529369354248
1790334793446829000,18.8578291015625,5.731719017028809,-9.555258750915527,-4.8937482833862305
1790334793463268600,18.8742685546875,5.154716491699219,-5.552153587341309,-1.5083470344543457
1790334793479725800,18.890725830078125,-0.4141969084739685,-6.840234279632568,-10.711658477783203
1790334793496166400,18.90716650390625,4.039018154144287,-7.7763671875,-2.011129379272461
1790334793512609500,18.923609619140624,2.449268341064453,-12.215216636657715,1.4772224426269531
1790334793529054000,18.940053955078124,4.338293552398682,-5.238513469696045,-5.987898349761963
1790334793545492000,18.956491943359374,8.813055992126465,-6.074089527130127,-4.4532151222229
1790334793561938400,18.9729384765625,2.1715409755706787,-9.370905876159668,-4.1611223220825195
1790334793578378800,18.989378662109374,2.9975404739379883,-5.9088897705078125,-0.7110779285430908
1790334793594836200,19.005836181640625,0.3663128614425659,-9.627084732055664,-9.696516990661621
1790334793611275800,19.02227587890625,3.7158010005950928,-11.094730377197266,-5.190629482269287
1790334793627713500,19.038713623046874,4.563348293304443,-10.26394271850586,1.0199298858642578
1790334793644157200,19.0551572265625,6.653486728668213,-4.757278919219971,-5.051765441894531
1790334793660596700,19.0715966796875,8.094796180725098,-5.044582843780518,-2.7269957065582275
1790334793677049000,19.088049072265626,1.6687586307525635,-11.925518989562988,-6.268020153045654
1790334793693489700,19.10448974609375,0.24420857429504395,-7.060500621795654,1.2665326595306396
1790334793709932500,19.1209326171875,-0.9792284965515137,-6.4380083084106445,-5.770026206970215
1790334793726299000,19.137298828125,6.028599739074707,-9.488221168518066,-4.563348293304443
1790334793742708200,19.153708251953127,5.099649429321289,-7.659051418304443,-2.7772738933563232
1790334793759114500,19.170114501953126,4.082113742828369,-9.246406555175781,-6.117185115814209
1790334793775591000,19.1865908203125,4.378994941711426,-6.916848659515381,-2.5450363159179688
1790334793792033000,19.203032958984377,3.8091750144958496,-6.864176273345947,-6.687005519866943
1790334793808486700,19.219486572265627,4.3406877517700195,-7.486668586730957,-2.8395233154296875
1790334793824925700,19.23592578125,2.9903578758239746,-12.057199478149414,-0.9217676520347595
1790334793841383000,19.2523828125,5.161899089813232,-9.710882186889648,-4.256890773773193
1790334793857821200,19.2688212890625,5.307945251464844,-8.710105895996094,-5.228936672210693
1790334793874260200,19.28526025390625,3.4548330307006836,-6.471527099609375,-7.398083209991455
1790334793890707700,19.301707763671875,5.731719017028809,-5.621585369110107,-1.194706678390503
1790334793907154200,19.318154296875,-3.5386300086975098,-7.141903877258301,-10.137049674987793
1790334793923601400,19.334601318359375,3.7660791873931885,-3.3734302520751953,2.626439332962036
1790334793940012000,19.351011962890624,2.846705913543701,-13.797784805297852,-5.303156852722168
1790334793956452600,19.36745263671875,3.9408559799194336,-8.372523307800293,-1.9536685943603516
1790334793972770000,19.38377001953125,7.570465564727783,-8.259995460510254,-5.114014625549316
1790334793989210600,19.400210693359377,3.7900211811065674,-12.105083465576172,-5.963956356048584
1790334794005665500,19.41666552734375,4.790797710418701,-4.355052947998047,0.6871358752250671
1790334794022136300,19.43313623046875,3.179499864578247,-7.050923824310303,-7.115567684173584
1790334794038577700,19.44957763671875,2.389413356781006,-9.93354320526123,-2.896984100341797
1790334794055029800,19.46602978515625,3.6511576175689697,-11.188104629516602,-3.555389642715454
1790334794071470300,19.48247021484375,5.216965675354004,-13.848062515258789,-7.802703380584717
1790334794087828200,19.498828125,9.469067573547363,-5.947196960449219,-3.19865345954895
1790334794104166000,19.515165771484376,2.032677173614502,-8.221688270568848,-7.285555839538574
1790334794120604000,19.53160400390625,3.7684733867645264,-2.43011474609375,-0.028730420395731926
1790334794137039600,19.54803955078125,3.4308910369873047,-8.755595207214355,-0.5027823448181152
1790334794153378600,19.564378662109377,-0.6320692300796509,-3.892971992492676,-3.0813376903533936
1790334794169778200,19.580778076171875,8.542511940002441,-10.730812072753906,-7.493851184844971
1790334794186192600,19.597192626953124,5.415684223175049,-14.76264762878418,-7.3454108238220215
1790334794202628900,19.61362890625,5.360617637634277,-7.400477409362793,0.0694318488240242
1790334794219068700,19.630068603515625,4.529829502105713,-8.147468566894531,-4.156333923339844
1790334794235505200,19.646505126953127,4.108449935913086,-7.3885064125061035,-2.0398597717285156
1790334794251942000,19.66294189453125,4.671087741851807,-5.5760955810546875,-0.15562310814857483
1790334794268386300,19.67938623046875,4.431667327880859,-9.8784761428833,-8.269572257995605
1790334794284822300,19.695822265625,5.827486991882324,-5.87776517868042,-4.572925090789795
1790334794301288200,19.7122880859375,3.971980571746826,-9.940725326538086,-7.608773231506348
1790334794317726700,19.728726806640626,4.1611223220825195,-7.2113356590271,-1.2856862545013428
1790334794334177000,19.745177001953124,-3.1100680828094482,-7.666234016418457,-4.944026470184326
1790334794350615600,19.761615478515626,3.955221176147461,-8.698134422302246,-6.315904140472412
1790334794367053600,19.778053466796877,1.4772224426269531,-2.537853717803955,-6.490680694580078
1790334794383518000,19.79451806640625,4.106055736541748,-14.587870597839355,-9.193734169006348
1790334794399956700,19.810956787109376,1.1492167711257935,-6.0190229415893555,-0.43095630407333374
1790334794416395500,19.8273955078125,3.0573954582214355,-8.061277389526367,-5.6670756340026855
1790334794432833800,19.843833740234373,3.5889084339141846,-9.96945571899414,-3.359065055847168
1790334794449271600,19.860271484375,2.492363929748535,-10.038887977600098,1.5275006294250488
1790334794465742600,19.87674267578125,1.7836803197860718,-8.097189903259277,-6.366182327270508
1790334794482179800,19.893179931640624,6.756437301635742,-5.918466567993164,-4.60165548324585
1790334794498619600,19.90961962890625,2.406172752380371,-7.553706169128418,-8.367734909057617
1790334794515064600,19.926064697265623,3.866635799407959,-5.406107425689697,0.22505496442317963
1790334794531504400,19.94250439453125,3.071760892868042,-13.168108940124512,0.6751648783683777
1790334794547967500,19.958967529296874,1.9991583824157715,-11.841721534729004,-5.367800235748291
1790334794564407600,19.975407470703125,10.256759643554688,-5.382165431976318,-1.8339585065841675
1790334794580864000,19.991864013671876,5.578489780426025,-11.93748950958252,-7.51779317855835
1790334794597306400,20.008306396484375,0.3519476354122162,-6.100425720214844,-2.051830768585205
1790334794613748500,20.02474853515625,-1.680729627609253,-8.063671112060547,-5.870582580566406
1790334794630217700,20.0412177734375,3.773261785507202,-7.010222434997559,-3.77565598487854
1790334794646658600,20.057658447265624,1.4915876388549805,-8.200140953063965,-1.9608511924743652
1790334794663099400,20.074099365234375,6.447585105895996,-10.426748275756836,-6.2416839599609375
1790334794679541500,20.09054150390625,6.682217121124268,-5.872976779937744,-2.322375535964966
1790334794695982600,20.106982666015625,1.8052281141281128,-11.403582572937012,-8.554482460021973
1790334794712428500,20.123428466796874,3.9887399673461914,-4.884171485900879,-1.3455413579940796
1790334794728872000,20.139871826171873,1.2473790645599365,-9.114726066589355,2.497152328491211
1790334794745313500,20.1563134765625,5.058948040008545,-8.983044624328613,-8.434772491455078
1790334794761761000,20.172760986328125,5.102043628692627,-5.609614372253418,-4.28322696685791
1790334794778203400,20.189203369140625,3.2752678394317627,-13.505691528320312,-8.1139497756958
1790334794794666500,20.20566650390625,3.8091750144958496,-6.14831018447876,-0.2849099934101105
1790334794811110000,20.22210986328125,-2.580949544906616,-8.520963668823242,-3.84269380569458
1790334794827565300,20.2385654296875,3.1890766620635986,-9.904812812805176,-7.5201873779296875
1790334794844007700,20.255007568359375,1.1180921792984009,-5.240907669067383,-7.762001991271973
1790334794860449500,20.271449462890626,5.729324817657471,-10.467450141906738,-7.448361396789551
1790334794876912400,20.287912353515626,4.019864559173584,-6.4380083084106445,-0.7829039692878723
1790334794893353200,20.304353271484374,3.488351821899414,-10.972626686096191,-5.202600479125977
1790334794909792500,20.32079248046875,5.054159641265869,-7.0317702293396,-3.971980571746826
1790334794926231300,20.337231201171875,7.173028469085693,-6.387730121612549,0.49320554733276367
1790334794942599700,20.353599609375,4.091690540313721,-9.435548782348633,-6.715735912322998
1790334794959030500,20.370030517578126,3.536235809326172,-8.31985092163086,-1.800439715385437
1790334794975467300,20.38646728515625,1.53707754611969,-9.476250648498535,-7.9631147384643555
1790334794991906000,20.402906005859375,5.319916248321533,-7.058106422424316,-1.3862427473068237
1790334795008351500,20.4193515625,3.3662476539611816,-8.868123054504395,0.7158663272857666
1790334795024790000,20.4357900390625,4.163516521453857,-7.843404769897461,-4.043806552886963
1790334795041248500,20.45224853515625,7.005434036254883,-5.018246650695801,-4.587290287017822
1790334795057664300,20.468664306640626,2.8826189041137695,-16.189592361450195,-9.339780807495117
1790334795074118400,20.485118408203125,4.343081951141357,-6.629544734954834,-0.26336219906806946
1790334795090553300,20.50155322265625,4.659116744995117,-8.200140953063965,0.7015010714530945
1790334795106990800,20.517990966796877,2.985569477081299,-6.7277069091796875,-6.086060523986816
1790334795123448800,20.53444873046875,8.865729331970215,-7.225700855255127,-4.891354084014893
1790334795139885600,20.550885498046874,2.6455929279327393,-10.903194427490234,-6.919242858886719
1790334795156320800,20.56732080078125,1.580173134803772,-6.586448669433594,-0.9074024558067322
1790334795172800500,20.583800537109376,-0.993593692779541,-7.704541206359863,-7.630321025848389
1790334795189235200,20.600235107421874,4.082113742828369,-10.093954086303711,-5.96874475479126
1790334795205674800,20.6166748046875,4.58968448638916,-7.532158374786377,-4.570530891418457
1790334795222107600,20.633107666015626,4.082113742828369,-6.5696892738342285,-7.017405033111572
1790334795238542300,20.649542236328124,4.714183330535889,-6.13633918762207,-1.6496049165725708
1790334795254982100,20.665982177734374,1.941697597503662,-10.065223693847656,-4.613626480102539
1790334795271442200,20.682442138671874,2.7485435009002686,-10.244789123535156,-4.594472885131836
1790334795287899600,20.698899658203125,4.9583916664123535,-9.150638580322266,-1.9728221893310547
1790334795304336000,20.7153359375,4.833893299102783,-9.713275909423828,-7.438784599304199
1790334795320787000,20.731786865234376,6.275202751159668,-6.830657482147217,-3.6535518169403076
1790334795337223400,20.748223388671875,3.270479440689087,-10.891223907470703,-8.111555099487305
1790334795353659000,20.764658935546876,0.028730420395731926,-5.66228723526001,-0.43335050344467163
1790334795370122200,20.781122314453125,6.830657482147217,-7.778761386871338,0.5793967843055725
1790334795386558000,20.797557861328126,3.864241600036621,-9.066842079162598,-5.147533416748047
1790334795402993700,20.81399365234375,0.8140285611152649,-4.311957359313965,-3.663128614425659
1790334795419428900,20.830428955078126,0.40462008118629456,-9.155426979064941,-9.579200744628906
1790334795435863800,20.84686376953125,4.127603530883789,-6.493074893951416,-1.6184803247451782
1790334795452305400,20.863305419921875,2.032677173614502,-11.077971458435059,3.6391866207122803
1790334795468738600,20.879738525390625,3.60566782951355,-8.303091049194336,-5.427655220031738
1790334795485172500,20.89617236328125,7.4986395835876465,-7.536946773529053,-5.980715751647949
1790334795501612000,20.912612060546873,3.8738183975219727,-11.781867027282715,-10.098742485046387
1790334795518048800,20.929048828125,-0.5817909836769104,-2.3774423599243164,0.33039984107017517
1790334795534485800,20.94548583984375,4.14915132522583,-9.557653427124023,-1.1228805780410767
1790334795550920200,20.961920166015624,3.1723172664642334,-10.591948509216309,-5.571307182312012
1790334795567379500,20.97837939453125,5.48272180557251,-6.191405773162842,-6.124367713928223
1790334795583812600,20.9948125,5.394136428833008,-8.14028549194336,-6.593631267547607
1790334795600248600,21.01124853515625,3.07415509223938,-4.486733913421631,1.213860273361206
1790334795616685600,21.027685546875,2.363077163696289,-11.003750801086426,-0.8379706144332886
